# XDI/1.0 BlueSky/1.5.0
# Beamline.name: 6BM
# Beamline.xray_source: NSLS-II three-pole wiggler
# Beamline.collimation: paraboloid mirror, 5 nm Rh on 30 nm Pt
# Beamline.focusing: not in use
# Beamline.harmonic_rejection: flat mirror, Si stripe, pitch = 7.0 mrad relative to beam
# Detector.i0: 10 cm N2
# Detector.i1: 25 cm N2
# Detector.i2: 25 cm N2
# Element.symbol: Ti
# Element.edge: K
# Facility.name: NSLS-II
# Facility.energy: 3.0
# Facility.current: 220.6
# Facility.mode: top-off
# Facility.gup: 301027
# Facility.saf: 304156
# Mono.name: Si(111)
# Mono.d_spacing: 3.1352584
# Mono.encoder_resolution: 0.0000050 deg/ct
# Mono.angle_offset: 16.0571090 deg
# Mono.scan_mode: pseudo channel cut
# Mono.scan_type: step
# Mono.direction: forward in energy
# Sample.name: Bi2Ce2Ti3O12
# Sample.prep: Powder in polyethylene glycol pellet
# Sample.x_position: -113.290 mm
# Sample.y_position: 117.505 mm
# Sample.wheel_position: 195.000 mm
# Scan.experimenters: Bruce Ravel, Martin Stennett
# Scan.edge_energy: 4966.0
# Scan.start_time: 2019-05-30T21:00:12
# Scan.end_time: 2019-05-30T21:44:13
# Scan.transient_id: 9858
# Scan.uid: 8b242636-752d-41d1-91aa-f0724dad7b0c
# Scan.plot_hint: (DTC1 + DTC2 + DTC3 + DTC4) / I0  --  ($8+$9+$10+$11) / $5
# Scan.sequence: merge of 3 scans
# Column.1: energy eV
# Column.2: requested_energy eV
# Column.3: measurement_time seconds
# Column.4: mutrans
# Column.5: i0
# Column.6: itrans
# Column.7: irefer
# /////
#  sample disk prepared by Martin
# -----
# energy   requested_energy   measurement_time   mutrans   i0   itrans   irefer
4765.997000 4766.000000 0.500000 72.598905 10.724780 0.014755 0.003293
4776.008000 4776.000000 0.500000 71.561212 10.949018 0.015255 0.003093
4786.009000 4786.000000 0.500000 67.079112 11.207167 0.016391 0.003456
4796.010000 4796.000000 0.500000 61.730658 11.467918 0.017574 0.003527
4806.009000 4806.000000 0.500000 58.907244 11.728629 0.018619 0.003606
4816.009000 4816.000000 0.500000 55.824882 11.985310 0.019715 0.003733
4826.007000 4826.000000 0.500000 52.761893 12.244023 0.021215 0.003914
4836.001000 4836.000000 0.500000 50.084641 12.484546 0.022364 0.003963
4846.001000 4846.000000 0.500000 47.263125 12.731809 0.023888 0.004388
4855.998000 4856.000000 0.500000 43.535475 12.994155 0.025379 0.004429
4866.006000 4866.000000 0.500000 39.747005 13.253380 0.027061 0.004694
4876.010000 4876.000000 0.500000 37.404379 13.512183 0.028689 0.004775
4886.007000 4886.000000 0.500000 33.334574 13.768567 0.030209 0.005072
4896.004000 4896.000000 0.500000 31.379157 14.029378 0.032248 0.005448
4906.002000 4906.000000 0.500000 29.356548 14.294213 0.033947 0.005639
4916.001000 4916.000000 0.500000 27.963636 14.552106 0.036060 0.005889
4926.002000 4926.000000 0.500000 24.469457 14.811486 0.038191 0.006084
4936.001000 4936.000000 0.500000 23.557001 15.058592 0.040416 0.006625
4937.998000 4938.000000 0.500000 20.962565 15.106900 0.040805 0.006591
4939.996000 4940.000000 0.500000 23.763896 15.153417 0.041157 0.006707
4941.996000 4942.000000 0.500000 21.874005 15.196279 0.041452 0.006623
4943.992000 4944.000000 0.500000 21.957088 15.243382 0.041969 0.006792
4945.995000 4946.000000 0.500000 20.894661 15.285121 0.042578 0.006963
4948.005000 4948.000000 0.500000 22.391669 15.324262 0.042981 0.006934
4950.005000 4950.000000 0.500000 21.454904 15.370994 0.043468 0.006973
4952.005000 4952.000000 0.500000 20.726832 15.413380 0.043663 0.006893
4954.006000 4954.000000 0.500000 20.999656 15.457286 0.044315 0.007040
4956.000000 4956.000000 0.500000 20.933434 15.498732 0.044712 0.007186
4956.247000 4956.250000 0.500000 22.027194 15.503478 0.044672 0.007139
4956.494000 4956.500000 0.500000 21.917864 15.506949 0.044639 0.007054
4956.743000 4956.750000 0.500000 20.548596 15.511529 0.044869 0.007229
4956.994000 4957.000000 0.500000 21.281200 15.514819 0.044647 0.007098
4957.245000 4957.250000 0.500000 21.126299 15.520889 0.044760 0.007130
4957.494000 4957.500000 0.500000 20.863667 15.524881 0.045048 0.007304
4957.743000 4957.750000 0.500000 20.700616 15.527081 0.044866 0.007258
4957.996000 4958.000000 0.500000 21.553682 15.533077 0.045046 0.007074
4958.247000 4958.250000 0.500000 20.221276 15.541049 0.044998 0.007270
4958.496000 4958.500000 0.500000 21.596874 15.546834 0.045227 0.007153
4958.744000 4958.750000 0.500000 22.264229 15.548570 0.045283 0.007306
4958.997000 4959.000000 0.500000 22.539000 15.553123 0.045318 0.007224
4959.243000 4959.250000 0.500000 21.256450 15.557945 0.045474 0.007349
4959.496000 4959.500000 0.500000 21.317890 15.565234 0.045302 0.007439
4959.746000 4959.750000 0.500000 21.207199 15.568978 0.045594 0.007407
4959.996000 4960.000000 0.500000 21.271765 15.575630 0.045539 0.007206
4960.248000 4960.250000 0.500000 19.757057 15.579506 0.045666 0.007333
4960.499000 4960.500000 0.500000 20.924350 15.586518 0.045388 0.007278
4960.746000 4960.750000 0.500000 21.024434 15.590174 0.045671 0.007285
4960.996000 4961.000000 0.500000 22.207374 15.595375 0.045565 0.007146
4961.246000 4961.250000 0.500000 22.234457 15.601450 0.045605 0.007229
4961.495000 4961.500000 0.500000 22.229846 15.607838 0.045970 0.007484
4961.748000 4961.750000 0.500000 22.345439 15.612550 0.045931 0.007245
4961.996000 4962.000000 0.500000 23.057150 15.617520 0.046182 0.007437
4962.249000 4962.250000 0.500000 21.501605 15.622701 0.046075 0.007314
4962.496000 4962.500000 0.500000 21.905583 15.625978 0.046167 0.007368
4962.747000 4962.750000 0.500000 22.716866 15.633536 0.046094 0.007265
4962.997000 4963.000000 0.500000 22.074745 15.638427 0.046064 0.007361
4963.246000 4963.250000 0.500000 23.353475 15.645140 0.046208 0.007240
4963.496000 4963.500000 0.500000 23.545247 15.649071 0.046326 0.007283
4963.750000 4963.750000 0.500000 23.317912 15.654393 0.046330 0.007205
4963.996000 4964.000000 0.500000 22.896624 15.658681 0.046322 0.007053
4964.249000 4964.250000 0.500000 25.470246 15.666265 0.046360 0.006921
4964.500000 4964.500000 0.500000 24.574671 15.706669 0.046549 0.006740
4964.747000 4964.750000 0.500000 25.693017 15.711532 0.046687 0.006427
4965.000000 4965.000000 0.500000 25.338095 15.715532 0.046675 0.006052
4965.247000 4965.250000 0.500000 25.792864 15.720151 0.046730 0.005699
4965.496000 4965.500000 0.500000 25.680869 15.724788 0.046797 0.005491
4965.748000 4965.750000 0.500000 27.163603 15.728744 0.046729 0.005603
4965.999000 4966.000000 0.500000 28.018310 15.732955 0.046927 0.005748
4966.252000 4966.250000 0.500000 30.804976 15.736410 0.047027 0.005895
4966.498000 4966.500000 0.500000 33.350464 15.742722 0.046808 0.005852
4966.750000 4966.750000 0.500000 37.629210 15.744648 0.046904 0.005986
4966.999000 4967.000000 0.500000 45.156942 15.744969 0.046885 0.006076
4967.247000 4967.250000 0.500000 49.387729 15.747596 0.046579 0.006022
4967.500000 4967.500000 0.500000 55.368473 15.822397 0.046845 0.006329
4967.750000 4967.750000 0.500000 58.640917 15.827945 0.046880 0.006165
4968.001000 4968.000000 0.500000 57.923638 15.834393 0.046835 0.006004
4968.250000 4968.250000 0.500000 64.145096 15.842578 0.046783 0.005973
4968.499000 4968.500000 0.500000 79.451651 15.847913 0.046676 0.005872
4968.749000 4968.750000 0.500000 101.713378 15.850923 0.046484 0.005728
4968.996000 4969.000000 0.500000 129.011772 15.853519 0.045767 0.005497
4969.250000 4969.250000 0.500000 150.540255 15.854631 0.045454 0.005495
4969.500000 4969.500000 0.500000 149.129027 15.855605 0.045647 0.005457
4969.748000 4969.750000 0.500000 137.019959 15.856122 0.045835 0.005526
4969.999000 4970.000000 0.500000 122.060361 15.858021 0.046115 0.005366
4970.250000 4970.250000 0.500000 108.033053 15.865196 0.046506 0.005730
4970.501000 4970.500000 0.500000 103.622731 15.875713 0.046694 0.005577
4970.748000 4970.750000 0.500000 96.083872 15.888659 0.046922 0.005542
4970.999000 4971.000000 0.500000 90.587008 15.898965 0.046985 0.005430
4971.249000 4971.250000 0.500000 90.466946 15.908265 0.047171 0.005463
4971.503000 4971.500000 0.500000 86.917662 15.915292 0.047176 0.005442
4971.751000 4971.750000 0.500000 87.493253 15.921834 0.047167 0.005328
4972.003000 4972.000000 0.500000 89.572173 15.926566 0.047210 0.005246
4972.252000 4972.250000 0.500000 95.643701 15.930784 0.047278 0.005279
4972.502000 4972.500000 0.500000 99.793983 15.935008 0.047277 0.005236
4972.748000 4972.750000 0.500000 103.979154 15.938448 0.047040 0.005034
4972.997000 4973.000000 0.500000 101.752794 15.942464 0.047169 0.004804
4973.251000 4973.250000 0.500000 103.286018 15.946153 0.047248 0.005065
4973.503000 4973.500000 0.500000 100.848350 15.948513 0.047403 0.004938
4973.750000 4973.750000 0.500000 95.966872 15.951957 0.047395 0.004822
4974.001000 4974.000000 0.500000 95.341072 15.955321 0.047566 0.004662
4974.251000 4974.250000 0.500000 92.520830 15.958122 0.047815 0.004749
4974.500000 4974.500000 0.500000 89.481388 15.959834 0.047895 0.004729
4974.749000 4974.750000 0.500000 89.084638 15.962372 0.047881 0.004707
4975.000000 4975.000000 0.500000 83.809413 15.962101 0.047912 0.004625
4975.253000 4975.250000 0.500000 84.192675 15.962557 0.047937 0.004417
4975.503000 4975.500000 0.500000 88.213095 15.964374 0.048042 0.004442
4975.754000 4975.750000 0.500000 89.994321 15.963383 0.047852 0.004256
4976.001000 4976.000000 0.500000 92.601393 15.965324 0.048057 0.004491
4976.251000 4976.250000 0.500000 97.569529 15.961977 0.047875 0.004102
4976.500000 4976.500000 0.500000 103.413987 15.960575 0.048070 0.004298
4976.749000 4976.750000 0.500000 112.405025 15.961599 0.047635 0.004038
4977.000000 4977.000000 0.500000 122.110558 15.962861 0.047460 0.004078
4977.254000 4977.250000 0.500000 134.197204 15.963754 0.047527 0.004107
4977.502000 4977.500000 0.500000 148.980296 15.965627 0.046993 0.003882
4977.752000 4977.750000 0.500000 161.001432 15.969770 0.047008 0.004043
4977.999000 4978.000000 0.500000 173.653888 15.971149 0.046755 0.003831
4978.251000 4978.250000 0.500000 192.890137 15.975552 0.046659 0.004015
4978.500000 4978.500000 0.500000 200.942898 15.979617 0.046467 0.004034
4978.753000 4978.750000 0.500000 223.498692 15.982015 0.046012 0.003729
4979.000000 4979.000000 0.500000 235.708734 15.982720 0.045837 0.003819
4979.253000 4979.250000 0.500000 255.907368 15.984779 0.045639 0.003864
4979.501000 4979.500000 0.500000 268.594823 15.983607 0.045481 0.003925
4979.751000 4979.750000 0.500000 287.376181 15.979789 0.045009 0.003747
4979.998000 4980.000000 0.500000 310.473812 15.978502 0.044722 0.003723
4980.249000 4980.250000 0.500000 327.911731 15.976801 0.044775 0.004052
4980.502000 4980.500000 0.500000 351.334566 15.972734 0.044016 0.003616
4980.754000 4980.750000 0.500000 375.547632 15.970558 0.043373 0.003471
4981.001000 4981.000000 0.500000 408.616859 15.971555 0.043529 0.003803
4981.254000 4981.250000 0.500000 436.984075 15.965876 0.042797 0.003673
4981.501000 4981.500000 0.500000 462.039592 15.967859 0.042314 0.003565
4981.751000 4981.750000 0.500000 490.319146 15.969062 0.041952 0.003631
4981.999000 4982.000000 0.500000 509.667310 15.971636 0.041648 0.003460
4982.252000 4982.250000 0.500000 537.417723 15.974840 0.041391 0.003381
4982.500000 4982.500000 0.500000 561.765222 15.978687 0.041115 0.003536
4982.753000 4982.750000 0.500000 570.576204 15.982085 0.040947 0.003471
4983.002000 4983.000000 0.500000 584.321412 15.983149 0.040353 0.003357
4983.252000 4983.250000 0.500000 591.515817 15.983484 0.040421 0.003505
4983.498000 4983.500000 0.500000 597.318534 15.983917 0.040287 0.003566
4983.751000 4983.750000 0.500000 596.825768 15.983627 0.040380 0.003407
4983.999000 4984.000000 0.500000 601.668097 15.980613 0.040388 0.003574
4984.252000 4984.250000 0.500000 600.393542 15.978727 0.040394 0.003372
4984.502000 4984.500000 0.500000 590.901843 15.979263 0.040377 0.003479
4984.753000 4984.750000 0.500000 592.416358 15.978579 0.040888 0.003578
4985.000000 4985.000000 0.500000 591.742933 15.979403 0.040762 0.003421
4985.250000 4985.250000 0.500000 584.142620 15.983746 0.040915 0.003692
4985.500000 4985.500000 0.500000 585.620939 15.985759 0.040832 0.003460
4985.750000 4985.750000 0.500000 586.878768 15.986551 0.040954 0.003470
4986.000000 4986.000000 0.500000 584.862285 15.988860 0.040927 0.003404
4986.253000 4986.250000 0.500000 593.210387 15.987351 0.040980 0.003435
4986.502000 4986.500000 0.500000 589.310386 15.986631 0.041058 0.003535
4986.753000 4986.750000 0.500000 597.765112 15.984533 0.041025 0.003759
4987.002000 4987.000000 0.500000 600.071194 15.983282 0.041167 0.003629
4987.253000 4987.250000 0.500000 598.170805 15.980883 0.040987 0.003515
4987.498000 4987.500000 0.500000 606.942724 15.977581 0.040899 0.003476
4987.752000 4987.750000 0.500000 613.795258 15.977923 0.040933 0.003552
4987.999000 4988.000000 0.500000 616.028745 15.979396 0.041020 0.003710
4988.253000 4988.250000 0.500000 618.855156 15.984072 0.041006 0.003635
4988.502000 4988.500000 0.500000 612.809632 15.993223 0.041041 0.003539
4988.754000 4988.750000 0.500000 612.686812 16.004122 0.040996 0.003592
4988.999000 4989.000000 0.500000 610.306944 16.016385 0.041069 0.003598
4989.251000 4989.250000 0.500000 617.504807 16.029414 0.041130 0.003682
4989.503000 4989.500000 0.500000 619.479830 16.040946 0.041351 0.003814
4989.750000 4989.750000 0.500000 622.371260 16.051906 0.041151 0.003600
4990.003000 4990.000000 0.500000 623.951824 16.066584 0.041287 0.003645
4990.252000 4990.250000 0.500000 618.635750 16.080356 0.041309 0.003848
4990.504000 4990.500000 0.500000 623.585605 16.093673 0.041329 0.003679
4990.750000 4990.750000 0.500000 627.036022 16.106752 0.041633 0.003684
4991.001000 4991.000000 0.500000 617.070432 16.118362 0.041597 0.003721
4991.248000 4991.250000 0.500000 618.866630 16.130574 0.041639 0.003565
4991.500000 4991.500000 0.500000 616.698135 16.142376 0.041947 0.003799
4991.750000 4991.750000 0.500000 612.332433 16.152494 0.041845 0.003635
4992.002000 4992.000000 0.500000 610.808428 16.163884 0.042006 0.003585
4992.252000 4992.250000 0.500000 606.990508 16.171773 0.042006 0.003632
4992.502000 4992.500000 0.500000 605.546228 16.179466 0.042236 0.003695
4992.750000 4992.750000 0.500000 608.235546 16.187750 0.042311 0.003650
4993.000000 4993.000000 0.500000 613.885362 16.201094 0.042418 0.003803
4993.249000 4993.250000 0.500000 604.234139 16.232753 0.042569 0.003694
4993.499000 4993.500000 0.500000 602.146645 16.238048 0.042625 0.003896
4993.753000 4993.750000 0.500000 606.378175 16.243934 0.042788 0.003800
4994.003000 4994.000000 0.500000 600.112526 16.250793 0.042787 0.003878
4994.254000 4994.250000 0.500000 608.184222 16.254605 0.042514 0.003606
4994.498000 4994.500000 0.500000 609.541172 16.259963 0.042758 0.003765
4994.753000 4994.750000 0.500000 615.038893 16.263725 0.042693 0.003872
4995.002000 4995.000000 0.500000 616.092589 16.266098 0.042850 0.003828
4995.249000 4995.250000 0.500000 610.524820 16.273025 0.042966 0.003737
4995.501000 4995.500000 0.500000 610.477060 16.319497 0.042809 0.003560
4995.753000 4995.750000 0.500000 619.007879 16.398135 0.043121 0.003757
4996.006000 4996.000000 0.700000 614.944344 22.901666 0.060192 0.005296
4997.090000 4997.080000 0.710000 627.135273 23.243749 0.061263 0.005191
4998.187000 4998.180000 0.730000 628.518034 23.902917 0.063078 0.005295
4999.298000 4999.290000 0.740000 644.109303 24.249790 0.064311 0.005336
5000.437000 5000.430000 0.750000 642.611081 24.616907 0.065477 0.005489
5001.586000 5001.580000 0.760000 635.046244 24.994441 0.066958 0.005475
5002.769000 5002.760000 0.780000 626.696181 25.710885 0.069252 0.005743
5003.955000 5003.950000 0.790000 620.312136 26.100190 0.070895 0.005802
5005.167000 5005.160000 0.800000 601.971114 26.496237 0.072793 0.005755
5006.399000 5006.390000 0.810000 577.728598 26.901682 0.074965 0.006113
5007.643000 5007.640000 0.830000 567.507035 27.631284 0.077457 0.006388
5008.916000 5008.910000 0.840000 556.050647 28.028837 0.079253 0.006518
5010.205000 5010.200000 0.850000 535.738784 28.427181 0.081566 0.006925
5011.516000 5011.510000 0.860000 519.131572 28.820784 0.083701 0.007283
5012.834000 5012.830000 0.880000 506.257370 29.542905 0.086339 0.007314
5014.184000 5014.180000 0.890000 501.763926 29.935307 0.088155 0.007589
5015.546000 5015.540000 0.900000 499.214542 30.322494 0.089696 0.007677
5016.934000 5016.930000 0.910000 505.479835 30.717425 0.091268 0.007872
5018.335000 5018.330000 0.930000 503.102936 31.456072 0.093919 0.007935
5019.756000 5019.750000 0.940000 506.579807 31.860674 0.095581 0.008179
5021.195000 5021.190000 0.950000 504.347221 32.265542 0.097252 0.008288
5022.656000 5022.650000 0.960000 501.855278 32.668890 0.099048 0.008290
5024.132000 5024.130000 0.980000 505.023287 33.415810 0.102120 0.008806
5025.637000 5025.630000 0.990000 497.714297 33.827325 0.104338 0.008997
5027.150000 5027.140000 1.000000 495.763127 34.236654 0.105980 0.009134
5028.686000 5028.680000 1.010000 497.183293 34.646940 0.107769 0.009137
5030.244000 5030.240000 1.030000 499.392489 35.397727 0.110516 0.009236
5031.813000 5031.810000 1.040000 501.343065 35.807397 0.112362 0.009164
5033.404000 5033.400000 1.050000 504.927465 36.219003 0.114096 0.009140
5035.016000 5035.010000 1.060000 512.191147 36.629756 0.116083 0.009352
5036.656000 5036.650000 1.080000 517.146283 37.390882 0.118961 0.009453
5038.295000 5038.300000 1.090000 519.089226 37.808350 0.120530 0.009527
5039.964000 5039.970000 1.100000 520.598945 38.221503 0.122689 0.009347
5041.648000 5041.650000 1.110000 527.109321 38.640698 0.124565 0.009698
5043.356000 5043.360000 1.130000 526.517515 39.405117 0.128005 0.010045
5045.087000 5045.090000 1.140000 530.101396 39.827318 0.129589 0.010063
5046.827000 5046.830000 1.150000 535.948982 40.248699 0.132028 0.010449
5048.597000 5048.600000 1.160000 540.747637 40.672543 0.133771 0.010787
5050.376000 5050.380000 1.180000 546.407641 41.454289 0.136937 0.011194
5052.177000 5052.180000 1.190000 552.462415 41.880700 0.138646 0.011464
5053.996000 5054.000000 1.200000 559.207799 42.315081 0.140588 0.011562
5055.837000 5055.840000 1.210000 566.449026 42.751284 0.142469 0.011936
5057.696000 5057.700000 1.230000 574.213541 43.546980 0.146107 0.012074
5059.569000 5059.580000 1.240000 578.089215 43.986330 0.148278 0.012344
5061.476000 5061.480000 1.250000 578.593866 44.424525 0.150718 0.013106
5063.396000 5063.400000 1.260000 588.865629 44.864396 0.152921 0.012899
5065.326000 5065.330000 1.280000 582.746270 45.673236 0.156827 0.013073
5067.285000 5067.290000 1.290000 584.224899 46.115580 0.159340 0.013648
5069.257000 5069.260000 1.300000 579.260484 46.565239 0.162458 0.013914
5071.254000 5071.260000 1.310000 577.861074 47.010684 0.165232 0.014064
5073.268000 5073.270000 1.330000 570.662557 47.820238 0.169532 0.014152
5075.296000 5075.300000 1.340000 563.732033 48.261178 0.172641 0.014562
5077.348000 5077.350000 1.350000 562.417299 48.711633 0.175455 0.014458
5079.421000 5079.420000 1.360000 561.329203 49.166367 0.178703 0.014797
5081.508000 5081.510000 1.380000 556.608323 49.975860 0.182861 0.014731
5083.609000 5083.610000 1.390000 555.613863 50.412640 0.186179 0.014822
5085.737000 5085.740000 1.400000 554.751687 50.863049 0.189253 0.014744
5087.888000 5087.890000 1.410000 553.631786 51.310174 0.192491 0.015097
5090.051000 5090.050000 1.430000 553.739236 52.125966 0.196903 0.015062
5092.233000 5092.230000 1.440000 552.768086 52.567058 0.199689 0.015483
5094.442000 5094.440000 1.450000 554.402217 53.019614 0.203517 0.015886
5096.666000 5096.660000 1.460000 556.910642 53.481798 0.206499 0.016365
5098.898000 5098.900000 1.480000 555.849384 54.300872 0.210846 0.016824
5101.163000 5101.160000 1.490000 555.073888 54.840337 0.215346 0.018174
5103.442000 5103.440000 1.500000 553.865453 55.352074 0.218208 0.018178
5105.743000 5105.740000 1.510000 554.461468 55.862085 0.222153 0.018647
5108.052000 5108.050000 1.530000 554.506558 56.796514 0.227744 0.019028
5110.390000 5110.390000 1.540000 559.842189 57.333267 0.231436 0.019391
5112.740000 5112.740000 1.550000 559.811378 57.815116 0.235162 0.019819
5115.123000 5115.120000 1.560000 564.026284 58.284001 0.238672 0.019718
5117.513000 5117.510000 1.580000 564.211990 59.135627 0.244076 0.020333
5119.921000 5119.920000 1.590000 562.694934 59.630068 0.248329 0.020786
5122.350000 5122.350000 1.600000 563.821084 60.107499 0.252048 0.020975
5124.801000 5124.800000 1.610000 562.978498 60.599086 0.255752 0.021310
5127.273000 5127.270000 1.630000 564.728857 61.471160 0.261360 0.021808
5129.763000 5129.760000 1.640000 568.942155 61.980639 0.265982 0.022606
5132.272000 5132.270000 1.650000 571.792635 62.487932 0.270119 0.022838
5134.790000 5134.790000 1.660000 577.441714 62.988853 0.273886 0.022910
5137.337000 5137.340000 1.680000 582.137419 63.877034 0.279710 0.023444
5139.900000 5139.900000 1.690000 583.102716 64.398683 0.283755 0.023640
5142.491000 5142.490000 1.700000 589.645058 64.907416 0.288393 0.023810
5145.090000 5145.090000 1.710000 589.674009 65.428502 0.292769 0.024007
5147.713000 5147.710000 1.730000 593.551477 66.325735 0.299179 0.024472
5150.351000 5150.350000 1.740000 588.880540 66.856860 0.304383 0.024924
5153.012000 5153.010000 1.750000 585.636825 67.392552 0.309997 0.025513
5155.693000 5155.690000 1.760000 589.085274 67.926808 0.314752 0.025687
5158.389000 5158.390000 1.780000 588.063064 68.849161 0.322378 0.026590
5161.112000 5161.110000 1.790000 589.229773 69.383985 0.327604 0.027318
5163.841000 5163.840000 1.800000 592.788068 69.927274 0.332787 0.028027
5166.601000 5166.600000 1.810000 591.561597 70.469603 0.338356 0.028655
5169.370000 5169.370000 1.830000 592.747760 71.408104 0.345814 0.029000
5172.173000 5172.170000 1.840000 589.141154 71.950742 0.351269 0.029745
5174.980000 5174.980000 1.850000 589.203697 72.483788 0.357505 0.030653
5177.811000 5177.810000 1.860000 594.335926 73.027112 0.363752 0.031400
5180.664000 5180.660000 1.880000 591.975515 73.967174 0.371813 0.032185
5183.532000 5183.530000 1.890000 592.550868 74.545002 0.377529 0.032678
5186.419000 5186.420000 1.900000 593.074263 75.089870 0.383819 0.033247
5189.323000 5189.320000 1.910000 595.611147 75.657382 0.389780 0.033967
5192.250000 5192.250000 1.930000 599.060235 76.598721 0.398310 0.034810
5195.200000 5195.200000 1.940000 595.636207 77.137485 0.404532 0.034969
5198.162000 5198.160000 1.950000 596.533977 77.674423 0.411047 0.035631
5201.143000 5201.140000 1.960000 597.683265 78.229013 0.417830 0.036139
5204.150000 5204.150000 1.980000 597.579932 79.213983 0.427516 0.036976
5207.170000 5207.170000 1.990000 599.820992 79.788029 0.434597 0.037464
5210.212000 5210.210000 2.000000 601.921578 80.364233 0.441072 0.037630
5213.271000 5213.270000 2.010000 601.477796 80.954137 0.448689 0.038799
5216.352000 5216.350000 2.030000 603.439242 81.912348 0.458202 0.039218
5219.452000 5219.450000 2.040000 605.513950 82.492066 0.466034 0.040347
5222.559000 5222.560000 2.050000 605.585733 83.060090 0.472689 0.040684
5225.703000 5225.700000 2.060000 607.250803 83.601916 0.480650 0.041999
5228.851000 5228.850000 2.080000 607.946916 84.549211 0.491032 0.042973
5232.032000 5232.030000 2.090000 612.088898 85.121779 0.498329 0.043339
5235.220000 5235.220000 2.100000 612.089581 85.713144 0.507056 0.044696
5238.432000 5238.430000 2.110000 612.959738 86.309965 0.515175 0.045521
5241.660000 5241.660000 2.130000 616.080522 87.321014 0.525869 0.046492
5244.923000 5244.920000 2.140000 621.654067 88.256773 0.536334 0.047760
5248.180000 5248.180000 2.150000 623.648875 88.656008 0.543888 0.048898
5251.470000 5251.470000 2.160000 623.531204 89.287656 0.552812 0.049707
5254.782000 5254.780000 2.180000 627.617011 90.698649 0.566844 0.050711
5258.109000 5258.110000 2.190000 627.535928 91.457889 0.577201 0.052092
5261.452000 5261.450000 2.200000 627.851235 92.080819 0.586864 0.053620
5264.822000 5264.820000 2.210000 629.958551 92.765799 0.597265 0.054646
5268.201000 5268.200000 2.230000 629.489288 93.910927 0.610503 0.055621
5271.601000 5271.600000 2.240000 631.777511 94.600202 0.621627 0.056788
5275.030000 5275.030000 2.250000 634.084828 95.399771 0.632943 0.058055
5278.470000 5278.470000 2.260000 635.961803 94.658619 0.633818 0.058024
5281.931000 5281.930000 2.280000 636.831164 97.058379 0.656176 0.059979
5285.404000 5285.400000 2.290000 639.138855 97.896490 0.668937 0.061172
5288.900000 5288.900000 2.300000 638.620172 98.621635 0.680666 0.062450
5292.421000 5292.420000 2.310000 637.954214 99.316056 0.692543 0.063630
5295.960000 5295.960000 2.330000 639.424664 100.495967 0.708283 0.065939
5299.512000 5299.510000 2.340000 642.940352 101.112945 0.719529 0.066475
5303.092000 5303.090000 2.350000 643.051999 101.800772 0.732068 0.067881
5306.680000 5306.680000 2.360000 644.578808 102.558142 0.745818 0.069746
5310.291000 5310.290000 2.380000 644.078428 103.748475 0.761864 0.071506
5313.922000 5313.920000 2.390000 646.489688 104.515890 0.775158 0.072873
5317.571000 5317.570000 2.400000 647.327320 105.216646 0.788650 0.074259
5321.239000 5321.240000 2.410000 651.614279 105.768117 0.800779 0.075697
5324.929000 5324.930000 2.430000 651.630970 106.810767 0.817288 0.077978
5328.642000 5328.640000 2.440000 656.580856 107.434949 0.830486 0.079040
5332.362000 5332.360000 2.450000 656.732085 108.101082 0.844805 0.080907
5336.110000 5336.110000 2.460000 659.811529 108.779476 0.858353 0.082722
5339.875000 5339.870000 2.480000 659.992325 109.973841 0.876989 0.084685
5343.659000 5343.660000 2.490000 660.821609 110.625207 0.891559 0.086318
5347.460000 5347.460000 2.500000 664.011305 111.237294 0.906568 0.088654
5351.281000 5351.280000 2.510000 665.847074 111.741940 0.920411 0.089904
5355.120000 5355.120000 2.530000 664.583361 112.078068 0.933008 0.091765
5358.981000 5358.980000 2.540000 669.932235 113.838661 0.956403 0.093844
5362.861000 5362.860000 2.550000 670.081882 114.578746 0.972899 0.096028
5366.759000 5366.760000 2.560000 673.399215 115.221263 0.989023 0.097794
5370.678000 5370.680000 2.580000 671.875783 116.125884 1.007304 0.099687
5374.612000 5374.610000 2.590000 676.081843 116.667470 1.022705 0.101839
5378.569000 5378.570000 2.600000 677.416239 117.197916 1.037910 0.103321
5382.537000 5382.540000 2.610000 681.485548 118.082604 1.056664 0.105524
5386.541000 5386.540000 2.630000 681.281325 119.305714 1.078937 0.108583
5390.548000 5390.550000 2.640000 685.514293 119.791924 1.095398 0.110968
5394.578000 5394.580000 2.650000 685.115558 120.268991 1.110754 0.112497
5398.631000 5398.630000 2.660000 691.171234 120.718752 1.126069 0.114856
5402.702000 5402.700000 2.680000 689.091480 121.590955 1.146289 0.116826
5406.789000 5406.790000 2.690000 693.927501 121.768704 1.160312 0.119290
5410.899000 5410.900000 2.700000 694.899840 121.950891 1.173981 0.121203
5415.022000 5415.020000 2.710000 697.298369 122.307514 1.190333 0.123610
5419.169000 5419.170000 2.730000 699.063460 122.415066 1.203182 0.125396
5423.330000 5423.330000 2.740000 704.269188 122.975914 1.221030 0.127797
5427.521000 5427.520000 2.750000 705.616466 123.188871 1.236728 0.130366
5431.721000 5431.720000 2.760000 706.828798 123.298016 1.250365 0.132095
5435.940000 5435.940000 2.780000 710.925301 123.891383 1.269558 0.134965
5440.180000 5440.180000 2.790000 712.732367 124.059057 1.285126 0.137068
5444.444000 5444.440000 2.800000 712.739694 124.273375 1.301478 0.139703
5448.721000 5448.720000 2.810000 715.765329 124.515486 1.317526 0.142135
5453.019000 5453.020000 2.830000 718.450998 125.194481 1.338783 0.144774
5457.341000 5457.340000 2.840000 718.579617 125.516668 1.357249 0.147519
5461.671000 5461.670000 2.850000 721.752295 125.827522 1.375052 0.149861
5466.031000 5466.030000 2.860000 722.252064 126.155886 1.393109 0.152022
5470.396000 5470.400000 2.880000 728.981191 126.981186 1.417402 0.155877
5474.802000 5474.800000 2.890000 730.880043 127.339142 1.436953 0.158567
5479.212000 5479.210000 2.900000 732.695442 127.804007 1.457110 0.161149
5483.643000 5483.640000 2.910000 735.853122 128.315895 1.478330 0.164369
5488.089000 5488.090000 2.930000 741.632469 129.260297 1.505686 0.168105
5492.558000 5492.560000 2.940000 741.920170 129.746684 1.527738 0.171300
5497.050000 5497.050000 2.950000 746.090752 130.448697 1.552772 0.174352
5501.564000 5501.560000 2.960000 746.224656 130.977418 1.575620 0.178221
5506.079000 5506.080000 2.980000 748.434069 131.971564 1.605421 0.182178
5510.627000 5510.630000 2.990000 749.630978 132.704966 1.631737 0.185832
5515.190000 5515.190000 3.000000 753.782170 133.417554 1.657744 0.189774
5519.782000 5519.780000 3.010000 756.744624 134.157762 1.685916 0.193859
5524.384000 5524.380000 3.030000 758.658556 135.390504 1.720083 0.198784
5529.003000 5529.000000 3.040000 764.988120 136.472725 1.752119 0.202613
5533.639000 5533.640000 3.050000 762.013702 137.380549 1.784610 0.208145
5538.299000 5538.300000 3.060000 764.075163 138.268321 1.815456 0.212963
5542.980000 5542.980000 3.080000 767.350223 139.686544 1.854512 0.218383
5547.681000 5547.680000 3.090000 774.571225 140.507148 1.886685 0.222537
5552.400000 5552.400000 3.100000 775.621701 141.509024 1.921236 0.227624
5557.132000 5557.130000 3.110000 775.016909 142.627934 1.957910 0.232965
5561.886000 5561.890000 3.130000 779.124627 143.886686 1.997010 0.238469
5566.657000 5566.660000 3.140000 782.421327 144.743873 2.030925 0.243733
5571.459000 5571.460000 3.150000 785.037678 145.651693 2.066929 0.249093
5576.272000 5576.270000 3.160000 788.484947 146.478906 2.102476 0.254465
5581.103000 5581.100000 3.180000 792.026826 147.797404 2.143972 0.260923
5585.953000 5585.950000 3.190000 793.244332 148.702121 2.181779 0.266795
5590.821000 5590.820000 3.200000 795.967586 149.606304 2.220301 0.272417
5595.709000 5595.710000 3.210000 799.857071 150.360846 2.255150 0.277642
5600.619000 5600.620000 3.230000 802.774960 151.724221 2.302422 0.285037
5605.538000 5605.540000 3.240000 803.988283 152.415458 2.338079 0.290504
5610.486000 5610.490000 3.250000 805.678394 153.316531 2.379019 0.297241
5615.451000 5615.450000 3.260000 811.393063 154.169152 2.419122 0.303996
5620.440000 5620.440000 3.280000 810.342300 155.345532 2.464316 0.310422
5625.441000 5625.440000 3.290000 815.383705 155.492904 2.494883 0.316175
5630.462000 5630.460000 3.300000 816.098635 155.708143 2.526175 0.321930
5635.501000 5635.500000 3.310000 821.541753 156.636845 2.570236 0.328674
5640.561000 5640.560000 3.330000 824.247988 157.950619 2.621665 0.337354
5645.640000 5645.640000 3.340000 823.081074 158.520670 2.659707 0.343860
5650.741000 5650.740000 3.350000 826.250219 159.092270 2.699893 0.350568
5655.859000 5655.860000 3.360000 831.892017 159.786012 2.741890 0.357922
5660.990000 5660.990000 3.380000 834.180596 161.066290 2.795637 0.366720
5666.149000 5666.150000 3.390000 838.930839 161.990612 2.844378 0.374777
5671.319000 5671.320000 3.400000 840.339673 163.054819 2.894352 0.382980
5676.521000 5676.520000 3.410000 843.681505 163.945486 2.942830 0.391103
5681.727000 5681.730000 3.430000 848.158778 165.337622 2.999788 0.400317
5686.960000 5686.960000 3.440000 851.517555 166.354506 3.051659 0.409035
5692.210000 5692.210000 3.450000 856.016840 167.255744 3.101105 0.417887
5697.480000 5697.480000 3.460000 858.666365 168.067485 3.147934 0.426207
5702.770000 5702.770000 3.480000 865.762490 169.934794 3.214975 0.437145
5708.078000 5708.080000 3.490000 869.116355 170.563590 3.254099 0.445312
