# XDI/1.0 BlueSky/1.5.0
# Beamline.name: 6BM
# Beamline.xray_source: NSLS-II three-pole wiggler
# Beamline.collimation: paraboloid mirror, 5 nm Rh on 30 nm Pt
# Beamline.focusing: not in use
# Beamline.harmonic_rejection: flat mirror, Si stripe, pitch = 7.0 mrad relative to beam
# Detector.i0: 10 cm N2
# Detector.i1: 25 cm N2
# Detector.i2: 25 cm N2
# Element.symbol: Ti
# Element.edge: K
# Facility.name: NSLS-II
# Facility.energy: 3.0
# Facility.current: 219.5
# Facility.mode: top-off
# Facility.gup: 301027
# Facility.saf: 304156
# Mono.name: Si(111)
# Mono.d_spacing: 3.1352584
# Mono.encoder_resolution: 0.0000050 deg/ct
# Mono.angle_offset: 16.0571090 deg
# Mono.scan_mode: pseudo channel cut
# Mono.scan_type: step
# Mono.direction: forward in energy
# Sample.name: TiO2 anatase
# Sample.prep: Powder in polyethylene glycol pellet
# Sample.x_position: -97.532 mm
# Sample.y_position: 117.543 mm
# Sample.wheel_position: -420.000 mm
# Scan.experimenters: Bruce Ravel, Martin Stennett
# Scan.edge_energy: 4966.0
# Scan.start_time: 2019-05-29T19:00:19
# Scan.end_time: 2019-05-29T19:43:36
# Scan.transient_id: 9752
# Scan.uid: f32ba38a-0473-4f12-8442-7691134ab519
# Scan.plot_hint: ln(I0/It)  --  ln($5/$6)
# Scan.sequence: merge of 3 scans
# Column.1: energy eV
# Column.2: requested_energy eV
# Column.3: measurement_time seconds
# Column.4: mutrans
# Column.5: i0
# Column.6: itrans
# Column.7: irefer
# /////
#  sample disk prepared by Martin
# -----
# energy   requested_energy   measurement_time   mutrans   i0   itrans   irefer
4765.993000 4766.000000 0.500000 3.603884 10.822187 0.294585 0.024139
4776.007000 4776.000000 0.500000 3.583998 11.034243 0.306358 0.025275
4786.008000 4786.000000 0.500000 3.557324 11.311264 0.322539 0.026842
4796.007000 4796.000000 0.500000 3.530579 11.561848 0.338622 0.028565
4806.005000 4806.000000 0.500000 3.504507 11.823685 0.355436 0.030225
4816.002000 4816.000000 0.500000 3.478077 12.074030 0.372682 0.032238
4825.998000 4826.000000 0.500000 3.452964 12.328517 0.390215 0.034006
4836.000000 4836.000000 0.500000 3.427149 12.580752 0.408611 0.036127
4846.004000 4846.000000 0.500000 3.401364 12.833024 0.427688 0.038100
4856.003000 4856.000000 0.500000 3.376981 13.085353 0.446867 0.040350
4866.003000 4866.000000 0.500000 3.351425 13.330400 0.467021 0.042677
4876.002000 4876.000000 0.500000 3.327005 13.573207 0.487283 0.045104
4886.001000 4886.000000 0.500000 3.302953 13.814696 0.508025 0.047602
4896.000000 4896.000000 0.500000 3.278318 14.055796 0.529782 0.050185
4906.000000 4906.000000 0.500000 3.253821 14.301890 0.552425 0.053143
4915.999000 4916.000000 0.500000 3.230773 14.544544 0.574896 0.055826
4926.000000 4926.000000 0.500000 3.207798 14.780132 0.597787 0.058719
4936.001000 4936.000000 0.500000 3.184384 15.013774 0.621626 0.061702
4937.996000 4938.000000 0.500000 3.179523 15.082731 0.627522 0.062812
4939.995000 4940.000000 0.500000 3.175507 15.133100 0.632154 0.063172
4941.994000 4942.000000 0.500000 3.171524 15.175435 0.636450 0.063667
4943.995000 4944.000000 0.500000 3.166854 15.215631 0.641122 0.064276
4946.007000 4946.000000 0.500000 3.162234 15.254586 0.645744 0.064967
4947.998000 4948.000000 0.500000 3.157624 15.289002 0.650185 0.065708
4950.004000 4950.000000 0.500000 3.153598 15.330468 0.654585 0.066287
4952.007000 4952.000000 0.500000 3.148883 15.369320 0.659346 0.066763
4954.006000 4954.000000 0.500000 3.145798 15.404870 0.662914 0.067074
4956.007000 4956.000000 0.500000 3.141734 15.475545 0.668663 0.067750
4956.247000 4956.250000 0.500000 3.141355 15.480631 0.669137 0.067751
4956.494000 4956.500000 0.500000 3.140621 15.483669 0.669757 0.068117
4956.744000 4956.750000 0.500000 3.139998 15.486174 0.670283 0.067841
4956.994000 4957.000000 0.500000 3.139182 15.489508 0.670972 0.068057
4957.244000 4957.250000 0.500000 3.139089 15.492239 0.671156 0.067938
4957.493000 4957.500000 0.500000 3.139257 15.498814 0.671329 0.068235
4957.743000 4957.750000 0.500000 3.137998 15.499450 0.672201 0.068422
4957.995000 4958.000000 0.500000 3.137386 15.504945 0.672852 0.068271
4958.245000 4958.250000 0.500000 3.137170 15.511300 0.673273 0.068473
4958.495000 4958.500000 0.500000 3.136666 15.514588 0.673755 0.068330
4958.744000 4958.750000 0.500000 3.137055 15.518898 0.673681 0.068395
4958.996000 4959.000000 0.500000 3.136241 15.524687 0.674478 0.068400
4959.245000 4959.250000 0.500000 3.135612 15.526922 0.674999 0.068465
4959.496000 4959.500000 0.500000 3.135134 15.532200 0.675554 0.068516
4959.744000 4959.750000 0.500000 3.134889 15.537533 0.675951 0.068787
4959.996000 4960.000000 0.500000 3.134652 15.541117 0.676269 0.068277
4960.248000 4960.250000 0.500000 3.134072 15.543127 0.676746 0.068608
4960.497000 4960.500000 0.500000 3.134248 15.549477 0.676905 0.068741
4960.747000 4960.750000 0.500000 3.133667 15.554096 0.677500 0.068459
4960.998000 4961.000000 0.500000 3.133154 15.558903 0.678057 0.068702
4961.245000 4961.250000 0.500000 3.132571 15.562715 0.678615 0.068929
4961.494000 4961.500000 0.500000 3.132391 15.568008 0.678972 0.068599
4961.746000 4961.750000 0.500000 3.132358 15.572384 0.679184 0.068316
4961.997000 4962.000000 0.500000 3.131957 15.578410 0.679720 0.068495
4962.249000 4962.250000 0.500000 3.131950 15.584915 0.680011 0.068377
4962.499000 4962.500000 0.500000 3.131231 15.589550 0.680699 0.068382
4962.748000 4962.750000 0.500000 3.131546 15.594705 0.680711 0.068027
4962.999000 4963.000000 0.500000 3.131311 15.599990 0.681101 0.067826
4963.249000 4963.250000 0.500000 3.131075 15.603018 0.681392 0.067373
4963.497000 4963.500000 0.500000 3.131330 15.608066 0.681443 0.066870
4963.746000 4963.750000 0.500000 3.131273 15.614047 0.681741 0.066268
4964.000000 4964.000000 0.500000 3.131063 15.619371 0.682115 0.065095
4964.246000 4964.250000 0.500000 3.131275 15.624332 0.682189 0.063297
4964.499000 4964.500000 0.500000 3.131794 15.627011 0.681948 0.060188
4964.749000 4964.750000 0.500000 3.132361 15.630146 0.681703 0.056075
4964.998000 4965.000000 0.500000 3.133251 15.635307 0.681322 0.051593
4965.251000 4965.250000 0.500000 3.134183 15.638393 0.680815 0.048276
4965.497000 4965.500000 0.500000 3.135776 15.642718 0.679929 0.046750
4965.747000 4965.750000 0.500000 3.137641 15.645143 0.678756 0.046692
4965.998000 4966.000000 0.500000 3.141262 15.650144 0.676532 0.047761
4966.252000 4966.250000 0.500000 3.147133 15.653890 0.672673 0.049264
4966.500000 4966.500000 0.500000 3.156449 15.655545 0.666542 0.050223
4966.750000 4966.750000 0.500000 3.173156 15.660433 0.655765 0.050732
4967.001000 4967.000000 0.500000 3.199338 15.659591 0.638669 0.050143
4967.248000 4967.250000 0.500000 3.227354 15.664654 0.621410 0.049178
4967.498000 4967.500000 0.500000 3.240994 15.667428 0.613018 0.048392
4967.749000 4967.750000 0.500000 3.229862 15.672962 0.620127 0.048522
4967.999000 4968.000000 0.500000 3.206647 15.678145 0.634842 0.048633
4968.247000 4968.250000 0.500000 3.191319 15.684273 0.644886 0.048947
4968.499000 4968.500000 0.500000 3.190697 15.687172 0.645418 0.048199
4968.749000 4968.750000 0.500000 3.203782 15.690015 0.637167 0.046358
4968.999000 4969.000000 0.500000 3.224320 15.690852 0.624277 0.045017
4969.249000 4969.250000 0.500000 3.243294 15.690711 0.612565 0.043666
4969.497000 4969.500000 0.500000 3.256305 15.693231 0.604677 0.042560
4969.750000 4969.750000 0.500000 3.269222 15.691508 0.596810 0.041786
4970.000000 4970.000000 0.500000 3.287462 15.696559 0.586214 0.040913
4970.251000 4970.250000 0.500000 3.305328 15.702548 0.576073 0.040017
4970.503000 4970.500000 0.500000 3.316143 15.716977 0.570413 0.039322
4970.750000 4970.750000 0.500000 3.314034 15.726080 0.571936 0.039435
4971.002000 4971.000000 0.500000 3.300701 15.736585 0.579988 0.039622
4971.249000 4971.250000 0.500000 3.284558 15.744255 0.589697 0.039981
4971.499000 4971.500000 0.500000 3.271393 15.749143 0.597724 0.039900
4971.748000 4971.750000 0.500000 3.265768 15.754101 0.601277 0.039599
4972.000000 4972.000000 0.500000 3.270602 15.759036 0.598555 0.038725
4972.252000 4972.250000 0.500000 3.281857 15.763746 0.592050 0.037667
4972.502000 4972.500000 0.500000 3.295446 15.767802 0.584231 0.036175
4972.752000 4972.750000 0.500000 3.303976 15.770418 0.579351 0.035306
4973.001000 4973.000000 0.500000 3.306319 15.772970 0.578092 0.034306
4973.249000 4973.250000 0.500000 3.301308 15.774867 0.581045 0.033858
4973.501000 4973.500000 0.500000 3.292184 15.777671 0.586504 0.033615
4973.750000 4973.750000 0.500000 3.282119 15.781872 0.592597 0.032915
4973.997000 4974.000000 0.500000 3.270359 15.782541 0.599613 0.032926
4974.251000 4974.250000 0.500000 3.260941 15.785043 0.605364 0.032737
4974.502000 4974.500000 0.500000 3.253963 15.788605 0.609777 0.032531
4974.755000 4974.750000 0.500000 3.250790 15.789539 0.611742 0.031876
4975.001000 4975.000000 0.500000 3.251231 15.788655 0.611439 0.031185
4975.251000 4975.250000 0.500000 3.256101 15.789281 0.608501 0.030331
4975.501000 4975.500000 0.500000 3.264448 15.789593 0.603427 0.029362
4975.747000 4975.750000 0.500000 3.276335 15.790672 0.596436 0.028966
4976.000000 4976.000000 0.500000 3.292091 15.792107 0.587124 0.027941
4976.254000 4976.250000 0.500000 3.309169 15.798158 0.577246 0.027091
4976.500000 4976.500000 0.500000 3.329266 15.796498 0.565885 0.025919
4976.753000 4976.750000 0.500000 3.350931 15.811804 0.554166 0.025411
4976.998000 4977.000000 0.500000 3.374821 15.819251 0.541561 0.024480
4977.249000 4977.250000 0.500000 3.399482 15.822410 0.528342 0.023641
4977.498000 4977.500000 0.500000 3.424511 15.823024 0.515390 0.022617
4977.748000 4977.750000 0.500000 3.451426 15.825226 0.501746 0.021952
4978.003000 4978.000000 0.500000 3.478149 15.829029 0.488495 0.021327
4978.251000 4978.250000 0.500000 3.503558 15.831629 0.476428 0.020652
4978.502000 4978.500000 0.500000 3.525690 15.833544 0.466022 0.020257
4978.751000 4978.750000 0.500000 3.542553 15.834673 0.458270 0.019786
4979.000000 4979.000000 0.500000 3.553301 15.836526 0.453408 0.019465
4979.252000 4979.250000 0.500000 3.559626 15.835076 0.450492 0.019211
4979.500000 4979.500000 0.500000 3.565776 15.832810 0.447671 0.018987
4979.752000 4979.750000 0.500000 3.575130 15.828720 0.443390 0.018941
4979.999000 4980.000000 0.500000 3.590074 15.824979 0.436731 0.018565
4980.253000 4980.250000 0.500000 3.615221 15.822207 0.425699 0.018186
4980.502000 4980.500000 0.500000 3.649978 15.820921 0.411166 0.017449
4980.750000 4980.750000 0.500000 3.697469 15.816298 0.392189 0.016751
4981.002000 4981.000000 0.500000 3.754654 15.817142 0.370118 0.015849
4981.247000 4981.250000 0.500000 3.816127 15.816196 0.348352 0.014928
4981.500000 4981.500000 0.500000 3.876230 15.813885 0.327764 0.014285
4981.751000 4981.750000 0.500000 3.934383 15.816713 0.309351 0.013421
4982.001000 4982.000000 0.500000 3.988712 15.846840 0.293587 0.012756
4982.252000 4982.250000 0.500000 4.040592 15.857920 0.278900 0.012523
4982.502000 4982.500000 0.500000 4.094206 15.859472 0.264406 0.011551
4982.752000 4982.750000 0.500000 4.152756 15.862059 0.249228 0.011209
4983.001000 4983.000000 0.500000 4.219754 15.863357 0.233301 0.010562
4983.250000 4983.250000 0.500000 4.291509 15.861778 0.217026 0.010014
4983.498000 4983.500000 0.500000 4.362175 15.862374 0.202381 0.009552
4983.751000 4983.750000 0.500000 4.432984 15.858942 0.188332 0.008826
4984.002000 4984.000000 0.500000 4.501814 15.856251 0.175851 0.008433
4984.252000 4984.250000 0.500000 4.565791 15.854149 0.164891 0.008172
4984.501000 4984.500000 0.500000 4.622030 15.856908 0.155935 0.007826
4984.751000 4984.750000 0.500000 4.673286 15.889546 0.148407 0.007548
4985.001000 4985.000000 0.500000 4.720483 15.892122 0.141583 0.007186
4985.250000 4985.250000 0.500000 4.754135 15.893166 0.136949 0.007188
4985.502000 4985.500000 0.500000 4.774147 15.893094 0.134221 0.007176
4985.752000 4985.750000 0.500000 4.779049 15.895374 0.133585 0.006952
4986.005000 4986.000000 0.500000 4.766883 15.894463 0.135237 0.007210
4986.252000 4986.250000 0.500000 4.744554 15.894729 0.138259 0.007420
4986.504000 4986.500000 0.500000 4.713584 15.890791 0.142620 0.007534
4986.752000 4986.750000 0.500000 4.681404 15.888102 0.147238 0.007790
4987.000000 4987.000000 0.500000 4.650622 15.885179 0.151781 0.007973
4987.251000 4987.250000 0.500000 4.628579 15.884828 0.155182 0.008078
4987.501000 4987.500000 0.500000 4.609010 15.883541 0.158228 0.008212
4987.753000 4987.750000 0.500000 4.597039 15.881831 0.160115 0.008228
4988.003000 4988.000000 0.500000 4.582770 15.886598 0.162459 0.008493
4988.253000 4988.250000 0.500000 4.570204 15.890802 0.164568 0.008350
4988.501000 4988.500000 0.500000 4.559221 15.900035 0.166470 0.008589
4988.750000 4988.750000 0.500000 4.550516 15.909903 0.168036 0.008576
4988.999000 4989.000000 0.500000 4.544144 15.922997 0.169243 0.008690
4989.251000 4989.250000 0.500000 4.536432 15.931956 0.170658 0.008822
4989.503000 4989.500000 0.500000 4.531130 15.945841 0.171716 0.008870
4989.751000 4989.750000 0.500000 4.524195 15.957324 0.173026 0.009052
4990.003000 4990.000000 0.500000 4.517110 15.971013 0.174410 0.008866
4990.253000 4990.250000 0.500000 4.508488 15.983458 0.176065 0.008967
4990.502000 4990.500000 0.500000 4.500477 15.995674 0.177614 0.008675
4990.750000 4990.750000 0.500000 4.491410 16.008565 0.179373 0.009038
4991.001000 4991.000000 0.500000 4.481859 16.021935 0.181249 0.009095
4991.252000 4991.250000 0.500000 4.474541 16.031168 0.182683 0.009298
4991.499000 4991.500000 0.500000 4.470939 16.043432 0.183474 0.009343
4991.752000 4991.750000 0.500000 4.470426 16.049624 0.183646 0.009465
4992.001000 4992.000000 0.500000 4.473729 16.062033 0.183184 0.009424
4992.251000 4992.250000 0.500000 4.480253 16.066766 0.182044 0.009283
4992.499000 4992.500000 0.500000 4.490216 16.076904 0.180360 0.009123
4992.750000 4992.750000 0.500000 4.502304 16.083054 0.178246 0.009054
4993.001000 4993.000000 0.500000 4.517209 16.089470 0.175685 0.009166
4993.251000 4993.250000 0.500000 4.530201 16.094491 0.173491 0.009018
4993.504000 4993.500000 0.500000 4.542604 16.099551 0.171384 0.008806
4993.752000 4993.750000 0.500000 4.549453 16.103566 0.170265 0.008805
4994.005000 4994.000000 0.500000 4.555091 16.108463 0.169359 0.008746
4994.249000 4994.250000 0.500000 4.554206 16.114058 0.169565 0.008851
4994.502000 4994.500000 0.500000 4.551480 16.118475 0.170079 0.008870
4994.750000 4994.750000 0.500000 4.548345 16.121581 0.170642 0.008727
4995.002000 4995.000000 0.500000 4.545347 16.124023 0.171182 0.008654
4995.251000 4995.250000 0.500000 4.543068 16.131089 0.171645 0.008922
4995.500000 4995.500000 0.500000 4.545802 16.133510 0.171209 0.008562
4995.752000 4995.750000 0.500000 4.549217 16.145654 0.170746 0.008548
4996.000000 4996.000000 0.700000 4.552123 22.553408 0.237825 0.012120
4997.093000 4997.080000 0.710000 4.587419 22.933128 0.233437 0.011602
4998.189000 4998.180000 0.730000 4.616378 23.581431 0.233188 0.011472
4999.302000 4999.290000 0.740000 4.613683 23.921291 0.237187 0.011403
5000.431000 5000.430000 0.750000 4.610486 24.279840 0.241510 0.011688
5001.588000 5001.580000 0.760000 4.624504 24.652085 0.241803 0.011889
5002.769000 5002.760000 0.780000 4.614255 25.356820 0.251284 0.012234
5003.956000 5003.950000 0.790000 4.557360 25.741336 0.270026 0.012966
5005.169000 5005.160000 0.800000 4.475624 26.129569 0.297463 0.014512
5006.396000 5006.390000 0.810000 4.397583 26.520567 0.326377 0.015370
5007.646000 5007.640000 0.830000 4.330621 27.243545 0.358503 0.017386
5008.916000 5008.910000 0.840000 4.272783 27.627732 0.385226 0.018446
5010.207000 5010.200000 0.850000 4.203801 28.017127 0.418546 0.020386
5011.514000 5011.510000 0.860000 4.145098 28.405804 0.449982 0.021995
5012.838000 5012.830000 0.880000 4.113956 29.118379 0.475889 0.022940
5014.188000 5014.180000 0.890000 4.105593 29.498541 0.486142 0.023483
5015.545000 5015.540000 0.900000 4.107652 29.878061 0.491385 0.024507
5016.938000 5016.930000 0.910000 4.107115 30.269487 0.498099 0.024741
5018.337000 5018.330000 0.930000 4.099274 30.988829 0.513945 0.025575
5019.759000 5019.750000 0.940000 4.086015 31.385845 0.527482 0.026417
5021.193000 5021.190000 0.950000 4.074443 31.782135 0.540341 0.027351
5022.656000 5022.650000 0.960000 4.070378 32.181396 0.549365 0.027909
5024.139000 5024.130000 0.980000 4.074442 32.919359 0.559677 0.028291
5025.639000 5025.630000 0.990000 4.081853 33.317930 0.562274 0.028629
5027.148000 5027.140000 1.000000 4.091081 33.712405 0.563709 0.028309
5028.685000 5028.680000 1.010000 4.097320 34.187501 0.568105 0.028620
5030.246000 5030.240000 1.030000 4.099494 34.922823 0.579059 0.028731
5031.815000 5031.810000 1.040000 4.100750 35.325536 0.585001 0.028566
5033.405000 5033.400000 1.050000 4.101332 35.728283 0.591327 0.028230
5035.019000 5035.010000 1.060000 4.097489 36.127711 0.600242 0.028446
5036.658000 5036.650000 1.080000 4.092838 36.874194 0.615496 0.028668
5038.306000 5038.300000 1.090000 4.094662 37.291453 0.621317 0.028600
5039.976000 5039.970000 1.100000 4.106247 37.693193 0.620791 0.028687
5041.649000 5041.650000 1.110000 4.123254 38.093419 0.616794 0.028704
5043.357000 5043.360000 1.130000 4.133342 38.844337 0.622645 0.029126
5045.090000 5045.090000 1.140000 4.133739 39.257130 0.629013 0.029754
5046.826000 5046.830000 1.150000 4.132842 39.665376 0.636124 0.030885
5048.594000 5048.600000 1.160000 4.135842 40.074573 0.640767 0.031386
5050.378000 5050.380000 1.180000 4.136212 40.838441 0.652733 0.032862
5052.176000 5052.180000 1.190000 4.138984 41.340493 0.658932 0.033697
5053.997000 5054.000000 1.200000 4.148444 41.775785 0.659596 0.034396
5055.836000 5055.840000 1.210000 4.164020 42.201423 0.656018 0.034778
5057.699000 5057.700000 1.230000 4.177356 42.991203 0.659441 0.035219
5059.577000 5059.580000 1.240000 4.184744 43.430003 0.661272 0.035094
5061.477000 5061.480000 1.250000 4.183686 43.856800 0.668478 0.035729
5063.400000 5063.400000 1.260000 4.176111 44.292815 0.680270 0.036363
5065.328000 5065.330000 1.280000 4.162904 45.126334 0.702280 0.037888
5067.289000 5067.290000 1.290000 4.146883 45.640028 0.721735 0.038900
5069.259000 5069.260000 1.300000 4.128763 46.081657 0.742052 0.040354
5071.260000 5071.260000 1.310000 4.111468 46.527325 0.762303 0.041619
5073.269000 5073.270000 1.330000 4.097370 47.337975 0.786590 0.042626
5075.299000 5075.300000 1.340000 4.087664 47.782933 0.801724 0.043276
5077.351000 5077.350000 1.350000 4.080135 48.240614 0.815525 0.044030
5079.416000 5079.420000 1.360000 4.073126 48.700031 0.829069 0.043873
5081.507000 5081.510000 1.380000 4.064815 49.510528 0.849907 0.044552
5083.610000 5083.610000 1.390000 4.051601 49.967007 0.869166 0.044621
5085.736000 5085.740000 1.400000 4.031735 50.417338 0.894578 0.045403
5087.889000 5087.890000 1.410000 4.006692 50.874036 0.925584 0.046104
5090.047000 5090.050000 1.430000 3.981879 51.701954 0.964257 0.047673
5092.231000 5092.230000 1.440000 3.963342 52.172677 0.991269 0.048617
5094.437000 5094.440000 1.450000 3.950208 52.637392 1.013295 0.050512
5096.656000 5096.660000 1.460000 3.942438 53.092165 1.030026 0.052549
5098.898000 5098.900000 1.480000 3.939122 53.915120 1.049473 0.054579
5101.155000 5101.160000 1.490000 3.937458 54.370824 1.060103 0.057480
5103.440000 5103.440000 1.500000 3.934763 54.835906 1.072059 0.058925
5105.742000 5105.740000 1.510000 3.924727 55.305403 1.092144 0.060810
5108.052000 5108.050000 1.530000 3.911194 56.136613 1.123666 0.062458
5110.392000 5110.390000 1.540000 3.900961 56.616288 1.144916 0.063984
5112.740000 5112.740000 1.550000 3.895294 57.097640 1.161214 0.064788
5115.123000 5115.120000 1.560000 3.889596 57.575039 1.177623 0.065904
5117.509000 5117.510000 1.580000 3.884963 58.430582 1.200663 0.067457
5119.918000 5119.920000 1.590000 3.883009 58.932248 1.213340 0.067977
5122.351000 5122.350000 1.600000 3.883337 59.432981 1.223250 0.069029
5124.799000 5124.800000 1.610000 3.884252 59.933725 1.232430 0.069785
5127.274000 5127.270000 1.630000 3.885712 60.817853 1.248783 0.071403
5129.761000 5129.760000 1.640000 3.888980 61.337109 1.255336 0.072109
5132.269000 5132.270000 1.650000 3.895605 61.858947 1.257658 0.072273
5134.788000 5134.790000 1.660000 3.902511 62.384281 1.259613 0.072638
5137.342000 5137.340000 1.680000 3.908550 63.287916 1.270161 0.073108
5139.901000 5139.900000 1.690000 3.912156 63.818391 1.276198 0.072995
5142.493000 5142.490000 1.700000 3.909608 64.352096 1.290162 0.073400
5145.089000 5145.090000 1.710000 3.900828 64.882625 1.312259 0.074305
5147.713000 5147.710000 1.730000 3.886106 65.797335 1.350515 0.076026
5150.351000 5150.350000 1.740000 3.870494 66.341089 1.383075 0.077740
5153.013000 5153.010000 1.750000 3.855508 66.888473 1.415558 0.079900
5155.691000 5155.690000 1.760000 3.839243 67.523537 1.452431 0.082929
5158.391000 5158.390000 1.780000 3.821294 68.543019 1.501056 0.086202
5161.113000 5161.110000 1.790000 3.803725 69.090190 1.539864 0.089457
5163.841000 5163.840000 1.800000 3.791379 69.656075 1.571757 0.091949
5166.600000 5166.600000 1.810000 3.783592 70.224625 1.596973 0.093978
5169.371000 5169.370000 1.830000 3.776243 71.169285 1.630389 0.096751
5172.171000 5172.170000 1.840000 3.768228 71.728896 1.656437 0.099255
5174.981000 5174.980000 1.850000 3.759772 72.283751 1.683431 0.102546
5177.808000 5177.810000 1.860000 3.751408 72.898316 1.711991 0.104805
5180.662000 5180.660000 1.880000 3.745848 73.972635 1.746917 0.107541
5183.530000 5183.530000 1.890000 3.743027 74.570874 1.766020 0.109305
5186.419000 5186.420000 1.900000 3.741101 75.132228 1.782744 0.110446
5189.318000 5189.320000 1.910000 3.736220 75.708627 1.805205 0.112319
5192.249000 5192.250000 1.930000 3.728129 76.667122 1.842914 0.115016
5195.200000 5195.200000 1.940000 3.720072 77.219262 1.871204 0.116950
5198.161000 5198.160000 1.950000 3.712684 77.748646 1.898005 0.118827
5201.138000 5201.140000 1.960000 3.701852 78.520093 1.937697 0.120772
5204.150000 5204.150000 1.980000 3.687820 79.510497 1.989860 0.124531
5207.170000 5207.170000 1.990000 3.676449 80.109437 2.027785 0.126755
5210.209000 5210.210000 2.000000 3.669086 80.700924 2.057859 0.128604
5213.271000 5213.270000 2.010000 3.662999 81.297648 2.085725 0.130509
5216.352000 5216.350000 2.030000 3.655003 82.299742 2.128404 0.133839
5219.450000 5219.450000 2.040000 3.644097 82.888392 2.167111 0.137218
5222.561000 5222.560000 2.050000 3.633549 83.498861 2.206230 0.140008
5225.699000 5225.700000 2.060000 3.625392 84.074099 2.239621 0.143063
5228.850000 5228.850000 2.080000 3.618360 85.060163 2.281874 0.146383
5232.028000 5232.030000 2.090000 3.610254 85.649879 2.316399 0.149273
5235.220000 5235.220000 2.100000 3.602651 86.273161 2.351065 0.152453
5238.428000 5238.430000 2.110000 3.596348 86.923168 2.383761 0.155745
5241.661000 5241.660000 2.130000 3.589821 87.913354 2.426701 0.159575
5244.921000 5244.920000 2.140000 3.584066 88.501073 2.457022 0.162831
5248.179000 5248.180000 2.150000 3.579771 88.633528 2.471285 0.165292
5251.469000 5251.470000 2.160000 3.576360 89.370790 2.500361 0.168346
5254.781000 5254.780000 2.180000 3.571240 90.812217 2.553729 0.173110
5258.110000 5258.110000 2.190000 3.564226 91.613440 2.594396 0.176789
5261.449000 5261.450000 2.200000 3.557784 92.304325 2.630840 0.180254
5264.820000 5264.820000 2.210000 3.551358 93.036282 2.668813 0.183717
5268.201000 5268.200000 2.230000 3.544452 94.236208 2.721965 0.187744
5271.601000 5271.600000 2.240000 3.536720 94.945566 2.763751 0.191414
5275.030000 5275.030000 2.250000 3.528347 95.794091 2.811879 0.194947
5278.468000 5278.470000 2.260000 3.519767 95.289010 2.821164 0.196428
5281.929000 5281.930000 2.280000 3.510558 97.540110 2.914512 0.202696
5285.397000 5285.400000 2.290000 3.500947 98.428806 2.969475 0.207662
5288.902000 5288.900000 2.300000 3.490359 99.195517 3.024459 0.211832
5292.418000 5292.420000 2.310000 3.479245 99.978210 3.082376 0.216851
5295.958000 5295.960000 2.330000 3.469085 101.209159 3.152197 0.223332
5299.512000 5299.510000 2.340000 3.459623 102.091434 3.209952 0.228431
5303.087000 5303.090000 2.350000 3.450742 102.867712 3.263180 0.232955
5306.682000 5306.680000 2.360000 3.440878 103.678779 3.321543 0.238703
5310.291000 5310.290000 2.380000 3.430608 104.931235 3.396367 0.245185
5313.919000 5313.920000 2.390000 3.421135 105.674930 3.452975 0.250406
5317.571000 5317.570000 2.400000 3.412585 106.659417 3.515089 0.256097
5321.239000 5321.240000 2.410000 3.403056 107.234442 3.567874 0.261040
5324.931000 5324.930000 2.430000 3.394039 108.315635 3.636485 0.267891
5328.640000 5328.640000 2.440000 3.385648 108.951948 3.688672 0.273683
5332.359000 5332.360000 2.450000 3.377257 109.647381 3.743494 0.279118
5336.111000 5336.110000 2.460000 3.369117 110.420104 3.800698 0.285228
5339.869000 5339.870000 2.480000 3.361057 111.623424 3.873199 0.292407
5343.657000 5343.660000 2.490000 3.353234 112.301489 3.927314 0.298373
5347.461000 5347.460000 2.500000 3.345075 112.841049 3.978519 0.304446
5351.281000 5351.280000 2.510000 3.336944 113.568914 4.036891 0.310293
5355.119000 5355.120000 2.530000 3.330152 114.247021 4.088652 0.316376
5358.981000 5358.980000 2.540000 3.323146 115.798093 4.173306 0.323474
5362.860000 5362.860000 2.550000 3.315678 116.450216 4.228277 0.329141
5366.760000 5366.760000 2.560000 3.307879 117.007780 4.281773 0.334675
5370.680000 5370.680000 2.580000 3.300439 117.891724 4.346324 0.340710
5374.611000 5374.610000 2.590000 3.292638 118.377675 4.398447 0.346618
5378.568000 5378.570000 2.600000 3.284263 118.823704 4.452144 0.352382
5382.542000 5382.540000 2.610000 3.274817 119.391909 4.515902 0.359542
5386.542000 5386.540000 2.630000 3.264466 120.302262 4.597687 0.367884
5390.549000 5390.550000 2.640000 3.253758 120.686970 4.662023 0.374987
5394.583000 5394.580000 2.650000 3.243823 121.214019 4.729146 0.382452
5398.632000 5398.630000 2.660000 3.234350 121.272495 4.776460 0.388207
5402.698000 5402.700000 2.680000 3.224935 122.195137 4.858313 0.397074
5406.792000 5406.790000 2.690000 3.215987 122.314367 4.906780 0.403294
5410.902000 5410.900000 2.700000 3.206784 122.526262 4.960715 0.410180
5415.019000 5415.020000 2.710000 3.198395 122.878474 5.016876 0.416983
5419.170000 5419.170000 2.730000 3.190331 123.065151 5.065189 0.423643
5423.331000 5423.330000 2.740000 3.182772 123.662599 5.128384 0.431595
5427.522000 5427.520000 2.750000 3.175240 123.815012 5.173528 0.438357
5431.718000 5431.720000 2.760000 3.166951 124.030944 5.225678 0.445000
5435.940000 5435.940000 2.780000 3.158089 124.710296 5.301089 0.453881
5440.181000 5440.180000 2.790000 3.148791 124.991351 5.362668 0.462049
5444.440000 5444.440000 2.800000 3.139577 125.334951 5.427179 0.470194
5448.717000 5448.720000 2.810000 3.130825 125.671353 5.489555 0.477846
5453.020000 5453.020000 2.830000 3.121718 126.609327 5.581144 0.488992
5457.342000 5457.340000 2.840000 3.112747 127.244076 5.659687 0.498339
5461.671000 5461.670000 2.850000 3.104132 127.713474 5.729707 0.506540
5466.025000 5466.030000 2.860000 3.094855 128.277274 5.808621 0.516150
5470.400000 5470.400000 2.880000 3.085224 129.198809 5.906994 0.527589
5474.800000 5474.800000 2.890000 3.075136 130.114666 6.009169 0.539633
5479.211000 5479.210000 2.900000 3.065421 130.694539 6.094880 0.549970
5483.641000 5483.640000 2.910000 3.055725 131.304313 6.182991 0.560291
5488.090000 5488.090000 2.930000 3.046251 132.267754 6.287629 0.572916
5492.563000 5492.560000 2.940000 3.036827 133.029699 6.383732 0.585163
5497.050000 5497.050000 2.950000 3.026929 133.660450 6.477786 0.597363
5501.560000 5501.560000 2.960000 3.018087 134.470696 6.574922 0.609050
5506.079000 5506.080000 2.980000 3.009281 135.765418 6.696949 0.623434
5510.629000 5510.630000 2.990000 3.000920 136.425347 6.785976 0.635035
5515.193000 5515.190000 3.000000 2.992765 137.236219 6.882237 0.648176
5519.780000 5519.780000 3.010000 2.984986 138.051210 6.977150 0.660430
5524.378000 5524.380000 3.030000 2.977389 139.315417 7.094739 0.674945
5528.999000 5529.000000 3.040000 2.969869 140.168321 7.192086 0.688692
5533.641000 5533.640000 3.050000 2.962034 141.067292 7.295129 0.701998
5538.300000 5538.300000 3.060000 2.954054 141.798877 7.391697 0.715476
5542.980000 5542.980000 3.080000 2.945824 143.146869 7.523626 0.732399
5547.680000 5547.680000 3.090000 2.936942 143.929567 7.632265 0.747310
5552.398000 5552.400000 3.100000 2.927873 144.763510 7.746418 0.762295
5557.129000 5557.130000 3.110000 2.918908 145.620833 7.862460 0.778285
5561.890000 5561.890000 3.130000 2.909943 146.906972 8.003330 0.796048
5566.662000 5566.660000 3.140000 2.901346 147.722678 8.117263 0.811721
5571.459000 5571.460000 3.150000 2.892170 148.562716 8.238642 0.827963
5576.268000 5576.270000 3.160000 2.883228 149.359382 8.357213 0.845053
5581.099000 5581.100000 3.180000 2.873913 150.731218 8.512931 0.865291
5585.949000 5585.950000 3.190000 2.864733 151.589540 8.640364 0.882510
5590.819000 5590.820000 3.200000 2.855559 152.461705 8.770163 0.900702
5595.714000 5595.710000 3.210000 2.846563 153.245787 8.894946 0.918651
5600.620000 5600.620000 3.230000 2.837545 154.533093 9.050872 0.939407
5605.540000 5605.540000 3.240000 2.828749 155.305140 9.176443 0.958159
5610.490000 5610.490000 3.250000 2.820056 156.182475 9.308883 0.977396
5615.450000 5615.450000 3.260000 2.811657 157.228242 9.450257 0.997634
5620.438000 5620.440000 3.280000 2.802838 158.561221 9.614819 1.020563
5625.438000 5625.440000 3.290000 2.794111 158.586882 9.700664 1.035182
5630.459000 5630.460000 3.300000 2.785456 159.779686 9.858598 1.058408
5635.499000 5635.500000 3.310000 2.777116 159.891759 9.948119 1.074513
5640.558000 5640.560000 3.330000 2.767804 161.324525 10.131132 1.100137
5645.641000 5645.640000 3.340000 2.759248 162.015624 10.261977 1.120797
5650.740000 5650.740000 3.350000 2.750214 162.660471 10.396286 1.141911
5655.860000 5655.860000 3.360000 2.741009 163.571475 10.551198 1.165495
5660.991000 5660.990000 3.380000 2.731859 164.852708 10.731600 1.192026
5666.152000 5666.150000 3.390000 2.723065 165.767507 10.886459 1.215874
5671.321000 5671.320000 3.400000 2.714217 166.781875 11.050428 1.241458
5676.519000 5676.520000 3.410000 2.705448 167.847647 11.218973 1.267689
5681.730000 5681.730000 3.430000 2.696591 169.216065 11.411066 1.296171
5686.959000 5686.960000 3.440000 2.687651 170.070525 11.571670 1.322422
5692.209000 5692.210000 3.450000 2.678718 170.845444 11.728717 1.347773
5697.480000 5697.480000 3.460000 2.669875 171.534570 11.880627 1.372550
5702.769000 5702.770000 3.480000 2.661071 172.815658 12.075196 1.402727
5708.078000 5708.080000 3.490000 2.652069 173.472572 12.230677 1.428838
