# XDI/1.0 BlueSky/1.5.3
# Beamline.name: 6BM
# Beamline.xray_source: NSLS-II three-pole wiggler
# Beamline.collimation: paraboloid mirror, 5 nm Rh on 30 nm Pt
# Beamline.focusing: not in use
# Beamline.harmonic_rejection: flat mirror, Si stripe, pitch = 7.0 mrad relative to beam
# Detector.i0: 10 cm N2
# Detector.i1: 25 cm N2
# Detector.i2: 25 cm N2
# Element.symbol: Mn
# Element.edge: K
# Facility.name: NSLS-II
# Facility.energy: 3.0
# Facility.current: 400.4
# Facility.mode: top-off
# Facility.gup: 305081
# Facility.saf: 305123
# Mono.name: Si(111)
# Mono.d_spacing: 3.1353241
# Mono.encoder_resolution: 0.0000050 deg/ct
# Mono.angle_offset: 16.0581090 deg
# Mono.scan_mode: fixed exit
# Mono.scan_type: step
# Mono.direction: forward in energy
# Sample.name: Ca2(Al,Mn3+,Fe3+)3(SiO4)(Si2O7)O(OH)
# Sample.prep: Powder in polyethylene glycol pellet
# Sample.x_position: -120.140 mm
# Sample.y_position: 112.312 mm
# Scan.experimenters: Neil Hyatt, Martin Stennett, Lucy Mottram
# Scan.edge_energy: 6539.0
# Scan.start_time: 2019-11-11T19:53:30
# Scan.end_time: 2019-11-11T20:31:41
# Scan.transient_id: 17913
# Scan.uid: 48b966b6-211f-4913-8b46-9dd479bb4812
# Scan.plot_hint: ln(I0/It)  --  ln($5/$6)
# Scan.sequence: merge of 2 scans
# Column.1: energy eV
# Column.2: requested_energy eV
# Column.3: measurement_time seconds
# Column.4: mutrans
# Column.5: i0
# Column.6: itrans
# Column.7: irefer
# /////
#  nr Pilar, Taos Co., NM
# -----
# energy   requested_energy   measurement_time   mutrans   i0   itrans   irefer
6338.999000 6339.000000 0.500000 4.078109 90.028721 1.525075 0.350185
6349.010000 6349.000000 0.500000 4.062660 90.190056 1.551621 0.358932
6359.013000 6359.000000 0.500000 4.041790 90.362861 1.587335 0.369615
6369.024000 6369.000000 0.500000 4.021075 90.535734 1.623642 0.380682
6379.016000 6379.000000 0.500000 4.000742 90.717491 1.660320 0.392311
6389.019000 6389.000000 0.500000 3.980371 90.886157 1.697645 0.403744
6399.017000 6399.000000 0.500000 3.960109 91.019143 1.734922 0.414900
6409.018000 6409.000000 0.500000 3.940241 91.185897 1.772971 0.426769
6419.016000 6419.000000 0.500000 3.919675 91.361398 1.813308 0.439893
6429.013000 6429.000000 0.500000 3.899610 91.493135 1.852721 0.451922
6439.009000 6439.000000 0.500000 3.879854 91.633468 1.892578 0.464595
6449.009000 6449.000000 0.500000 3.860644 91.627132 1.929158 0.476379
6459.007000 6459.000000 0.500000 3.840980 91.615419 1.967205 0.489319
6469.004000 6469.000000 0.500000 3.821753 92.038851 2.014671 0.504027
6479.008000 6479.000000 0.500000 3.802355 92.178817 2.057264 0.517951
6489.005000 6489.000000 0.500000 3.783132 92.367401 2.101475 0.532195
6499.006000 6499.000000 0.500000 3.764358 92.541548 2.145341 0.546697
6508.958000 6509.000000 0.500000 3.744474 92.611883 2.190099 0.561460
6510.993000 6511.000000 0.500000 3.741374 92.714102 2.199316 0.564408
6512.988000 6513.000000 0.500000 3.737761 92.734254 2.207759 0.567118
6514.994000 6515.000000 0.500000 3.733884 92.765048 2.217070 0.570047
6516.989000 6517.000000 0.500000 3.730224 92.806562 2.226184 0.573241
6518.995000 6519.000000 0.500000 3.726006 92.819829 2.234946 0.575509
6521.414000 6521.000000 0.500000 3.722315 92.853285 2.245088 0.578821
6522.985000 6523.000000 0.500000 3.719005 92.856715 2.252470 0.580445
6525.237000 6525.000000 0.500000 3.715315 92.907575 2.262629 0.583564
6526.986000 6527.000000 0.500000 3.711567 92.939250 2.271361 0.585935
6528.988000 6529.000000 0.500000 3.707898 92.962935 2.280287 0.588357
6529.092000 6529.100000 0.500000 3.707559 92.945832 2.280650 0.588479
6529.269000 6529.200000 0.500000 3.707311 92.940641 2.281468 0.588928
6529.282000 6529.300000 0.500000 3.707289 92.920689 2.280633 0.588960
6529.382000 6529.400000 0.500000 3.707258 92.916779 2.280620 0.588138
6529.483000 6529.500000 0.500000 3.707104 92.927444 2.281233 0.588713
6529.581000 6529.600000 0.500000 3.706800 92.902494 2.281304 0.589223
6529.682000 6529.700000 0.500000 3.706726 92.885650 2.281065 0.588458
6529.786000 6529.800000 0.500000 3.706580 92.899430 2.281756 0.588635
6529.885000 6529.900000 0.500000 3.706399 92.900881 2.282178 0.588829
6529.985000 6530.000000 0.500000 3.706029 92.889674 2.282755 0.588588
6530.085000 6530.100000 0.500000 3.705883 92.883961 2.282949 0.589108
6530.184000 6530.200000 0.500000 3.705739 92.896280 2.283572 0.589179
6530.285000 6530.300000 0.500000 3.705715 92.865677 2.282882 0.588723
6530.387000 6530.400000 0.500000 3.705132 92.892369 2.284869 0.589205
6530.484000 6530.500000 0.500000 3.705338 92.882553 2.284159 0.589346
6530.588000 6530.600000 0.500000 3.704925 92.882914 2.285111 0.589277
6530.692000 6530.700000 0.500000 3.704721 92.896926 2.285934 0.589395
6530.787000 6530.800000 0.500000 3.704584 92.899250 2.286297 0.589709
6530.893000 6530.900000 0.500000 3.704194 92.885280 2.286845 0.589662
6530.995000 6531.000000 0.500000 3.704180 92.881639 2.286796 0.589536
6531.094000 6531.100000 0.500000 3.704112 92.870360 2.286673 0.589451
6531.194000 6531.200000 0.500000 3.703827 92.878506 2.287538 0.589739
6531.296000 6531.300000 0.500000 3.703609 92.878804 2.288021 0.589821
6531.395000 6531.400000 0.500000 3.703511 92.879822 2.288280 0.590048
6531.490000 6531.500000 0.500000 3.703272 92.873866 2.288667 0.590044
6531.598000 6531.600000 0.500000 3.703298 92.863921 2.288357 0.590064
6531.695000 6531.700000 0.500000 3.703023 92.869853 2.289154 0.589875
6531.795000 6531.800000 0.500000 3.702811 92.885638 2.290014 0.590223
6531.901000 6531.900000 0.500000 3.702412 92.870980 2.290566 0.590803
6531.998000 6532.000000 0.500000 3.702507 92.861812 2.290127 0.590087
6532.100000 6532.100000 0.500000 3.702403 92.867078 2.290512 0.590408
6532.205000 6532.200000 0.500000 3.702135 92.870580 2.291203 0.590355
6532.307000 6532.300000 0.500000 3.701855 92.871847 2.291836 0.590340
6532.402000 6532.400000 0.500000 3.701949 92.864512 2.291495 0.590053
6532.511000 6532.500000 0.500000 3.701620 92.851687 2.291853 0.589488
6532.605000 6532.600000 0.500000 3.701603 92.849466 2.291962 0.589759
6532.702000 6532.700000 0.500000 3.701172 92.856203 2.293056 0.589933
6532.797000 6532.800000 0.500000 3.701097 92.862024 2.293350 0.590379
6532.905000 6532.900000 0.500000 3.700860 92.868157 2.294057 0.590300
6533.009000 6533.000000 0.500000 3.700607 92.853576 2.294316 0.590227
6533.108000 6533.100000 0.500000 3.700169 92.843573 2.295016 0.589828
6533.206000 6533.200000 0.500000 3.700471 92.841508 2.294304 0.589682
6533.303000 6533.300000 0.500000 3.700044 92.857731 2.295687 0.590341
6533.404000 6533.400000 0.500000 3.699987 92.866454 2.296021 0.589943
6533.501000 6533.500000 0.500000 3.699883 92.859579 2.296114 0.589975
6533.605000 6533.600000 0.500000 3.699334 92.845435 2.296995 0.590254
6533.700000 6533.700000 0.500000 3.699078 92.848382 2.297649 0.590456
6533.801000 6533.800000 0.500000 3.699270 92.846139 2.297177 0.589681
6533.899000 6533.900000 0.500000 3.699220 92.860590 2.297645 0.589708
6534.002000 6534.000000 0.500000 3.698969 92.836093 2.297614 0.589729
6534.097000 6534.100000 0.500000 3.698616 92.835833 2.298401 0.589746
6534.199000 6534.200000 0.500000 3.698405 92.833576 2.298827 0.589988
6534.302000 6534.300000 0.500000 3.698342 93.031139 2.303894 0.590729
6534.399000 6534.400000 0.500000 3.698243 93.040501 2.304343 0.590398
6534.498000 6534.500000 0.500000 3.698016 93.036505 2.304763 0.590827
6534.598000 6534.600000 0.500000 3.697749 93.040168 2.305481 0.590589
6534.695000 6534.700000 0.500000 3.697452 93.029375 2.305853 0.590111
6534.799000 6534.800000 0.500000 3.697725 93.035710 2.305419 0.589605
6534.902000 6534.900000 0.500000 3.697310 93.028123 2.306190 0.589903
6535.000000 6535.000000 0.500000 3.697203 93.030215 2.306477 0.589288
6535.099000 6535.100000 0.500000 3.696988 93.032181 2.307020 0.588656
6535.202000 6535.200000 0.500000 3.696849 93.022671 2.307123 0.588760
6535.297000 6535.300000 0.500000 3.696512 93.013797 2.307643 0.588578
6535.399000 6535.400000 0.500000 3.696574 93.025739 2.307820 0.587762
6535.502000 6535.500000 0.500000 3.696127 93.031495 2.308993 0.587270
6535.602000 6535.600000 0.500000 3.696298 93.019182 2.308292 0.586573
6535.699000 6535.700000 0.500000 3.695704 93.016896 2.309606 0.586204
6535.804000 6535.800000 0.500000 3.695880 93.020029 2.309326 0.585465
6535.902000 6535.900000 0.500000 3.695306 93.027964 2.310799 0.585067
6536.003000 6536.000000 0.500000 3.695429 93.015680 2.310217 0.583737
6536.102000 6536.100000 0.500000 3.695285 93.014481 2.310513 0.583560
6536.203000 6536.200000 0.500000 3.695008 93.023650 2.311383 0.581852
6536.298000 6536.300000 0.500000 3.694887 93.025819 2.311708 0.580900
6536.404000 6536.400000 0.500000 3.694805 93.042807 2.312344 0.579963
6536.503000 6536.500000 0.500000 3.694387 93.169164 2.316437 0.579136
6536.600000 6536.600000 0.500000 3.694509 93.166634 2.316090 0.577595
6536.700000 6536.700000 0.500000 3.694277 93.176362 2.316877 0.575198
6536.803000 6536.800000 0.500000 3.694026 93.175141 2.317442 0.572408
6536.902000 6536.900000 0.500000 3.693669 93.187647 2.318559 0.570120
6537.001000 6537.000000 0.500000 3.693797 93.169055 2.317799 0.566601
6537.101000 6537.100000 0.500000 3.693726 93.158497 2.317724 0.562879
6537.197000 6537.200000 0.500000 3.693327 93.153160 2.318475 0.558837
6537.297000 6537.300000 0.500000 3.693201 93.170926 2.319233 0.554937
6537.400000 6537.400000 0.500000 3.693383 93.163009 2.318619 0.548865
6537.497000 6537.500000 0.500000 3.693167 93.165755 2.319163 0.544484
6537.598000 6537.600000 0.500000 3.692868 93.160359 2.319735 0.539530
6537.698000 6537.700000 0.500000 3.692903 93.154385 2.319500 0.534277
6537.795000 6537.800000 0.500000 3.693129 93.152281 2.318950 0.529285
6537.898000 6537.900000 0.500000 3.693045 93.152810 2.319149 0.523835
6538.000000 6538.000000 0.500000 3.692827 93.160020 2.319818 0.519379
6538.097000 6538.100000 0.500000 3.692802 93.170723 2.320155 0.516068
6538.195000 6538.200000 0.500000 3.692756 93.159253 2.319972 0.512136
6538.299000 6538.300000 0.500000 3.692858 93.151324 2.319537 0.508757
6538.396000 6538.400000 0.500000 3.692845 93.151413 2.319573 0.505054
6538.497000 6538.500000 0.500000 3.693170 93.142415 2.318597 0.501938
6538.601000 6538.600000 0.500000 3.692841 93.133084 2.319127 0.499178
6538.702000 6538.700000 0.500000 3.692862 93.133509 2.319085 0.496941
6538.801000 6538.800000 0.500000 3.692749 93.138786 2.319477 0.494385
6538.901000 6538.900000 0.500000 3.692515 93.135773 2.319942 0.492566
6538.999000 6539.000000 0.500000 3.692648 93.135367 2.319628 0.490358
6539.098000 6539.100000 0.500000 3.692680 93.147967 2.319866 0.488298
6539.202000 6539.200000 0.500000 3.692407 93.138091 2.320246 0.486579
6539.303000 6539.300000 0.500000 3.692217 93.124312 2.320348 0.484681
6539.400000 6539.400000 0.500000 3.691995 93.129640 2.320987 0.483248
6539.504000 6539.500000 0.500000 3.691767 93.128526 2.321481 0.481982
6539.603000 6539.600000 0.500000 3.692018 93.123097 2.320792 0.479731
6539.700000 6539.700000 0.500000 3.691432 93.117490 2.321974 0.478714
6539.805000 6539.800000 0.500000 3.691171 93.111075 2.322472 0.477090
6539.904000 6539.900000 0.500000 3.690844 93.130896 2.323702 0.476184
6540.001000 6540.000000 0.500000 3.690762 93.134704 2.323988 0.474538
6540.101000 6540.100000 0.500000 3.690341 93.133837 2.324945 0.474066
6540.202000 6540.200000 0.500000 3.690359 93.123347 2.324655 0.472781
6540.299000 6540.300000 0.500000 3.689936 93.101962 2.325078 0.471576
6540.398000 6540.400000 0.500000 3.689939 93.110424 2.325300 0.470068
6540.503000 6540.500000 0.500000 3.689815 93.141110 2.326341 0.468915
6540.600000 6540.600000 0.500000 3.689713 93.140934 2.326582 0.468236
6540.699000 6540.700000 0.500000 3.689626 93.110343 2.326028 0.467411
6540.802000 6540.800000 0.500000 3.689353 93.110297 2.326661 0.466757
6540.897000 6540.900000 0.500000 3.689138 93.117966 2.327343 0.466826
6540.996000 6541.000000 0.500000 3.689084 93.129361 2.327753 0.466672
6541.100000 6541.100000 0.500000 3.688874 93.117685 2.327975 0.466283
6541.198000 6541.200000 0.500000 3.688681 93.109266 2.328189 0.465543
6541.297000 6541.300000 0.500000 3.688509 93.105880 2.328507 0.465278
6541.401000 6541.400000 0.500000 3.688664 93.119555 2.328528 0.465543
6541.496000 6541.500000 0.500000 3.688211 93.117149 2.329453 0.465605
6541.597000 6541.600000 0.500000 3.688349 93.126421 2.329403 0.465380
6541.700000 6541.700000 0.500000 3.688090 93.132809 2.330159 0.465814
6541.799000 6541.800000 0.500000 3.687924 93.124343 2.330334 0.465630
6541.898000 6541.900000 0.500000 3.687717 93.107057 2.330377 0.464921
6541.999000 6542.000000 0.500000 3.687487 93.099704 2.330728 0.464717
6542.100000 6542.100000 0.500000 3.687455 93.112829 2.331140 0.464126
6542.199000 6542.200000 0.500000 3.687427 93.106960 2.331058 0.463678
6542.303000 6542.300000 0.500000 3.687364 93.113886 2.331392 0.463378
6542.402000 6542.400000 0.500000 3.687064 93.130942 2.332504 0.463257
6542.499000 6542.500000 0.500000 3.687052 93.127626 2.332450 0.462190
6542.602000 6542.600000 0.500000 3.687060 93.114919 2.332112 0.461294
6542.705000 6542.700000 0.500000 3.686826 93.106970 2.332460 0.460472
6542.800000 6542.800000 0.500000 3.686840 93.102020 2.332315 0.459763
6542.903000 6542.900000 0.500000 3.686885 93.118824 2.332617 0.458618
6543.004000 6543.000000 0.500000 3.686671 93.110698 2.332917 0.457779
6543.101000 6543.100000 0.500000 3.686723 93.115960 2.332926 0.456874
6543.204000 6543.200000 0.500000 3.686511 93.112626 2.333331 0.455990
6543.304000 6543.300000 0.500000 3.686594 93.102250 2.332881 0.455201
6543.400000 6543.400000 0.500000 3.686531 93.099707 2.332967 0.453504
6543.503000 6543.500000 0.500000 3.686480 93.099890 2.333081 0.452267
6543.602000 6543.600000 0.500000 3.686647 93.106144 2.332856 0.451741
6543.701000 6543.700000 0.500000 3.686830 93.106979 2.332451 0.450913
6543.800000 6543.800000 0.500000 3.686849 93.101849 2.332276 0.449694
6543.899000 6543.900000 0.500000 3.686751 93.104329 2.332568 0.449451
6543.998000 6544.000000 0.500000 3.686852 93.100355 2.332232 0.448134
6544.097000 6544.100000 0.500000 3.687189 93.096777 2.331358 0.447678
6544.202000 6544.200000 0.500000 3.687024 93.095623 2.331666 0.446305
6544.299000 6544.300000 0.500000 3.687175 93.099802 2.331465 0.445816
6544.394000 6544.400000 0.500000 3.687197 93.110220 2.331677 0.444233
6544.497000 6544.500000 0.500000 3.687423 93.108393 2.331089 0.443855
6544.598000 6544.600000 0.500000 3.687931 93.091639 2.329513 0.442100
6544.694000 6544.700000 0.500000 3.688109 93.097741 2.329248 0.441461
6544.798000 6544.800000 0.500000 3.688442 93.090984 2.328291 0.440140
6544.897000 6544.900000 0.500000 3.688402 93.084050 2.328213 0.439348
6544.998000 6545.000000 0.500000 3.689086 93.096344 2.326948 0.437942
6545.097000 6545.100000 0.500000 3.689358 93.106732 2.326548 0.436864
6545.200000 6545.200000 0.500000 3.689736 93.104307 2.325614 0.435163
6545.294000 6545.300000 0.500000 3.689926 93.083667 2.324678 0.434572
6545.396000 6545.400000 0.500000 3.690284 93.073289 2.323589 0.432530
6545.501000 6545.500000 0.500000 3.690611 93.077534 2.322915 0.431254
6545.600000 6545.600000 0.500000 3.691050 93.095913 2.322351 0.430194
6545.697000 6545.700000 0.500000 3.691460 93.113561 2.321840 0.428944
6545.802000 6545.800000 0.500000 3.692210 93.083214 2.319342 0.427429
6545.901000 6545.900000 0.500000 3.692373 93.084794 2.319004 0.425984
6545.999000 6546.000000 0.500000 3.692690 93.075975 2.318076 0.424797
6546.103000 6546.100000 0.500000 3.693613 93.078343 2.315957 0.423060
6546.200000 6546.200000 0.500000 3.693993 93.093564 2.315494 0.421624
6546.300000 6546.300000 0.500000 3.694488 93.083715 2.314110 0.420101
6546.402000 6546.400000 0.500000 3.694853 93.065714 2.312787 0.418869
6546.503000 6546.500000 0.500000 3.695839 93.072672 2.310698 0.416468
6546.601000 6546.600000 0.500000 3.696220 93.071820 2.309793 0.415180
6546.705000 6546.700000 0.500000 3.697026 93.076987 2.308038 0.413364
6546.803000 6546.800000 0.500000 3.697672 93.079221 2.306586 0.411612
6546.902000 6546.900000 0.500000 3.698307 93.071609 2.304956 0.410029
6547.001000 6547.000000 0.500000 3.698944 93.067928 2.303369 0.408758
6547.102000 6547.100000 0.500000 3.699842 93.065602 2.301271 0.406770
6547.200000 6547.200000 0.500000 3.700662 93.068859 2.299475 0.405348
6547.301000 6547.300000 0.500000 3.701323 93.069696 2.297969 0.403308
6547.402000 6547.400000 0.500000 3.702203 93.257818 2.300565 0.402463
6547.499000 6547.500000 0.500000 3.703038 93.229010 2.298004 0.400848
6547.600000 6547.600000 0.500000 3.704174 93.226713 2.295274 0.399055
6547.701000 6547.700000 0.500000 3.704789 93.235812 2.294071 0.397241
6547.797000 6547.800000 0.500000 3.705899 93.255548 2.292129 0.395452
6547.896000 6547.900000 0.500000 3.706807 93.243166 2.289661 0.393950
6547.999000 6548.000000 0.500000 3.707769 93.233025 2.287211 0.392518
6548.096000 6548.100000 0.500000 3.708363 93.206952 2.285236 0.390713
6548.197000 6548.200000 0.500000 3.709512 93.217866 2.282809 0.388452
6548.298000 6548.300000 0.500000 3.710460 93.233974 2.281072 0.386620
6548.396000 6548.400000 0.500000 3.711105 93.243091 2.279863 0.384917
6548.497000 6548.500000 0.500000 3.712057 93.253469 2.277933 0.383018
6548.599000 6548.600000 0.500000 3.712440 93.221662 2.276274 0.381358
6548.699000 6548.700000 0.500000 3.713148 93.218848 2.274617 0.380235
6548.798000 6548.800000 0.500000 3.713621 93.213766 2.273394 0.378321
6548.899000 6548.900000 0.500000 3.714228 93.234956 2.272548 0.377671
6549.000000 6549.000000 0.500000 3.714830 93.244078 2.271399 0.375486
6549.099000 6549.100000 0.500000 3.715009 93.238760 2.270849 0.374860
6549.200000 6549.200000 0.500000 3.715706 93.223514 2.268898 0.372655
6549.300000 6549.300000 0.500000 3.716652 93.205448 2.266332 0.370846
6549.401000 6549.400000 0.500000 3.716992 93.210829 2.265673 0.369685
6549.502000 6549.500000 0.500000 3.717403 93.332874 2.267706 0.368568
6549.605000 6549.600000 0.500000 3.718056 93.340486 2.266412 0.367109
6549.700000 6549.700000 0.500000 3.718615 93.333054 2.264989 0.365339
6549.803000 6549.800000 0.500000 3.719079 93.332346 2.263878 0.364644
6549.902000 6549.900000 0.500000 3.720058 93.334376 2.261751 0.363083
6550.002000 6550.000000 0.500000 3.720540 93.341125 2.260821 0.360857
6550.103000 6550.100000 0.500000 3.721083 93.337194 2.259462 0.360312
6550.202000 6550.200000 0.500000 3.721647 93.331334 2.258074 0.358892
6550.300000 6550.300000 0.500000 3.722356 93.318123 2.256167 0.357249
6550.403000 6550.400000 0.500000 3.723105 93.343221 2.255052 0.355890
6550.504000 6550.500000 0.500000 3.723680 93.338477 2.253620 0.354332
6550.601000 6550.600000 0.500000 3.724580 93.323185 2.251274 0.353782
6550.699000 6550.700000 0.500000 3.724832 93.323326 2.250696 0.352475
6550.800000 6550.800000 0.500000 3.725735 93.318267 2.248518 0.351244
6550.899000 6550.900000 0.500000 3.726564 93.332110 2.247031 0.349809
6550.997000 6551.000000 0.500000 3.727100 93.335771 2.245897 0.348786
6551.101000 6551.100000 0.500000 3.728016 93.335775 2.243831 0.346844
6551.197000 6551.200000 0.500000 3.728471 93.324915 2.242565 0.345909
6551.296000 6551.300000 0.500000 3.729349 93.309511 2.240220 0.344503
6551.398000 6551.400000 0.500000 3.729869 93.313511 2.239151 0.343679
6551.497000 6551.500000 0.500000 3.730601 93.325062 2.237800 0.342695
6551.594000 6551.600000 0.500000 3.731275 93.321859 2.236250 0.341487
6551.701000 6551.700000 0.500000 3.731919 93.304259 2.234345 0.340030
6551.798000 6551.800000 0.500000 3.732191 93.293209 2.233469 0.339460
6551.898000 6551.900000 0.500000 3.732901 93.303695 2.232163 0.338826
6551.999000 6552.000000 0.500000 3.733486 93.325925 2.231344 0.337319
6552.100000 6552.100000 0.500000 3.733957 93.324817 2.230285 0.336456
6552.192000 6552.200000 0.500000 3.734184 93.304454 2.229325 0.335588
6552.297000 6552.300000 0.500000 3.734635 93.293652 2.228036 0.334218
6552.402000 6552.400000 0.500000 3.735199 93.289900 2.226679 0.333216
6552.501000 6552.500000 0.500000 3.735307 93.299294 2.226675 0.332683
6552.601000 6552.600000 0.500000 3.735513 93.303336 2.226294 0.331778
6552.702000 6552.700000 0.500000 3.735543 93.300993 2.226176 0.331254
6552.797000 6552.800000 0.500000 3.735705 93.301368 2.225837 0.330448
6552.900000 6552.900000 0.500000 3.735900 93.288338 2.225090 0.329503
6553.003000 6553.000000 0.500000 3.736098 93.293651 2.224766 0.329078
6553.103000 6553.100000 0.500000 3.736287 93.298496 2.224477 0.327845
6553.200000 6553.200000 0.500000 3.736228 93.292187 2.224446 0.327410
6553.302000 6553.300000 0.500000 3.736309 93.292628 2.224285 0.326980
6553.403000 6553.400000 0.500000 3.736048 93.279569 2.224539 0.326282
6553.500000 6553.500000 0.500000 3.736156 93.284995 2.224445 0.325727
6553.605000 6553.600000 0.500000 3.736284 93.276980 2.223963 0.325376
6553.703000 6553.700000 0.500000 3.736314 93.294678 2.224307 0.324863
6553.802000 6553.800000 0.500000 3.736143 93.295558 2.224705 0.324573
6553.902000 6553.900000 0.500000 3.736460 93.287862 2.223845 0.324094
6554.001000 6554.000000 0.500000 3.736068 93.254829 2.223911 0.323599
6554.099000 6554.100000 0.500000 3.736098 93.276282 2.224356 0.323421
6554.198000 6554.200000 0.500000 3.736324 93.276601 2.223862 0.323817
6554.301000 6554.300000 0.500000 3.736480 93.287132 2.223765 0.322687
6554.399000 6554.400000 0.500000 3.736515 93.310281 2.224242 0.322847
6554.498000 6554.500000 0.500000 3.736449 93.296660 2.224060 0.322932
6554.599000 6554.600000 0.500000 3.736624 93.271913 2.223083 0.322648
6554.697000 6554.700000 0.500000 3.736554 93.267529 2.223153 0.323115
6554.796000 6554.800000 0.500000 3.736773 93.272390 2.222761 0.322714
6554.901000 6554.900000 0.500000 3.736735 93.290245 2.223267 0.322803
6554.997000 6555.000000 0.500000 3.737155 93.286898 2.222269 0.323088
6555.098000 6555.100000 0.500000 3.737159 93.277227 2.222022 0.322781
6555.198000 6555.200000 0.500000 3.737281 93.260332 2.221348 0.322639
6555.296000 6555.300000 0.500000 3.737398 93.273824 2.221416 0.322836
6555.397000 6555.400000 0.500000 3.737815 93.285350 2.220768 0.323135
6555.500000 6555.500000 0.500000 3.738138 93.291366 2.220158 0.323368
6555.599000 6555.600000 0.500000 3.738545 93.273296 2.218862 0.323394
6555.699000 6555.700000 0.500000 3.739002 93.271991 2.217802 0.323404
6555.802000 6555.800000 0.500000 3.738861 93.284437 2.218406 0.324440
6555.901000 6555.900000 0.500000 3.739165 93.280734 2.217660 0.324754
6555.997000 6556.000000 0.500000 3.739430 93.257820 2.216524 0.324633
6556.104000 6556.100000 0.500000 3.739740 93.251434 2.215665 0.324949
6556.203000 6556.200000 0.500000 3.739988 93.263562 2.215418 0.325695
6556.299000 6556.300000 0.500000 3.740101 93.275829 2.215462 0.325767
6556.404000 6556.400000 0.500000 3.740496 93.274765 2.214548 0.326149
6556.504000 6556.500000 0.500000 3.740765 93.258128 2.213579 0.326756
6556.601000 6556.600000 0.500000 3.741217 93.239713 2.212143 0.326662
6556.705000 6556.700000 0.500000 3.741494 93.249899 2.211754 0.327751
6556.804000 6556.800000 0.500000 3.741550 93.257587 2.211821 0.328148
6556.902000 6556.900000 0.500000 3.741855 93.268574 2.211408 0.328418
6557.001000 6557.000000 0.500000 3.742429 93.275397 2.210287 0.328554
6557.104000 6557.100000 0.500000 3.742474 93.244040 2.209447 0.329360
6557.200000 6557.200000 0.500000 3.742891 93.226655 2.208129 0.329469
6557.300000 6557.300000 0.500000 3.743436 93.234873 2.207115 0.329732
6557.403000 6557.400000 0.500000 3.743480 93.262600 2.207659 0.331013
6557.501000 6557.500000 0.500000 3.743886 93.262109 2.206767 0.331114
6557.600000 6557.600000 0.500000 3.743958 93.238251 2.206031 0.331321
6557.701000 6557.700000 0.500000 3.744554 93.233134 2.204607 0.331573
6557.797000 6557.800000 0.500000 3.744762 93.229303 2.204058 0.332302
6557.901000 6557.900000 0.500000 3.744935 93.243040 2.203994 0.332983
6558.002000 6558.000000 0.500000 3.745170 93.234010 2.203256 0.332745
6558.098000 6558.100000 0.500000 3.745590 93.224584 2.202139 0.332470
6558.196000 6558.200000 0.500000 3.745465 93.230474 2.202525 0.332941
6558.297000 6558.300000 0.500000 3.745772 93.223107 2.201687 0.333562
6558.398000 6558.400000 0.500000 3.745896 93.218849 2.201314 0.333823
6558.496000 6558.500000 0.500000 3.745693 93.223844 2.201877 0.333850
6558.599000 6558.600000 0.500000 3.745647 93.229573 2.202107 0.334965
6558.697000 6558.700000 0.500000 3.745827 93.224905 2.201609 0.335385
6558.797000 6558.800000 0.500000 3.745909 93.222071 2.201356 0.335429
6558.898000 6558.900000 0.500000 3.745516 93.224430 2.202282 0.335650
6558.999000 6559.000000 0.500000 3.745332 93.206049 2.202251 0.335966
6559.097000 6559.100000 0.500000 3.745483 93.207418 2.201955 0.335510
6559.198000 6559.200000 0.500000 3.745175 93.214932 2.202796 0.336139
6559.302000 6559.300000 0.500000 3.745222 93.215647 2.202724 0.336692
6559.401000 6559.400000 0.500000 3.745022 93.205128 2.202914 0.336618
6559.501000 6559.500000 0.500000 3.744553 93.213220 2.204143 0.337193
6559.604000 6559.600000 0.500000 3.744177 93.204961 2.204800 0.337293
6559.702000 6559.700000 0.500000 3.743806 93.206902 2.205635 0.337600
6559.800000 6559.800000 0.500000 3.743327 93.191228 2.206315 0.338093
6559.905000 6559.900000 0.500000 3.742887 93.180001 2.207062 0.337895
6560.002000 6560.000000 0.500000 3.742307 93.162785 2.207885 0.337971
6560.102000 6560.100000 0.500000 3.742209 93.143447 2.207716 0.338322
6560.203000 6560.200000 0.500000 3.741510 93.135042 2.209011 0.338219
6560.303000 6560.300000 0.500000 3.740855 93.107411 2.209843 0.338522
6560.399000 6560.400000 0.500000 3.740008 93.062914 2.210617 0.339046
6560.504000 6560.500000 0.500000 3.739462 93.193137 2.214974 0.339057
6560.606000 6560.600000 0.500000 3.738568 93.203780 2.217220 0.339596
6560.705000 6560.700000 0.500000 3.738087 93.192038 2.217959 0.339518
6560.801000 6560.800000 0.500000 3.737083 93.173296 2.219727 0.340105
6560.903000 6560.900000 0.500000 3.736397 93.139024 2.220449 0.340384
6560.999000 6561.000000 0.500000 3.735442 93.141332 2.222589 0.340824
6561.098000 6561.100000 0.500000 3.734850 93.201264 2.225330 0.341406
6561.205000 6561.200000 0.500000 3.734108 93.244752 2.228045 0.341019
6561.299000 6561.300000 0.500000 3.733194 93.269673 2.230655 0.341151
6561.397000 6561.400000 0.500000 3.732551 93.291434 2.232611 0.341352
6561.502000 6561.500000 0.500000 3.731809 93.312657 2.234787 0.342056
6561.597000 6561.600000 0.500000 3.731042 93.338720 2.237089 0.342448
6561.696000 6561.700000 0.500000 3.730307 93.345462 2.238876 0.342338
6561.801000 6561.800000 0.500000 3.730057 93.352241 2.239645 0.342620
6561.897000 6561.900000 0.500000 3.729235 93.348761 2.241348 0.342640
6561.997000 6562.000000 0.500000 3.728651 93.329388 2.242214 0.343255
6562.097000 6562.100000 0.500000 3.728090 93.332976 2.243586 0.342895
6562.196000 6562.200000 0.500000 3.727537 93.345715 2.245121 0.343137
6562.292000 6562.300000 0.500000 3.726593 93.354438 2.247345 0.343360
6562.399000 6562.400000 0.500000 3.726445 93.352566 2.247758 0.342904
6562.499000 6562.500000 0.500000 3.725853 93.356371 2.249194 0.343575
6562.600000 6562.600000 0.500000 3.725430 93.563354 2.255124 0.344426
6562.698000 6562.700000 0.500000 3.725142 93.533995 2.255087 0.344200
6562.802000 6562.800000 0.500000 3.724458 93.527066 2.256449 0.344270
6562.898000 6562.900000 0.500000 3.723873 93.545631 2.258217 0.344699
6563.001000 6563.000000 0.500000 3.723526 93.550056 2.259110 0.344524
6563.101000 6563.100000 0.500000 3.723358 93.542529 2.259317 0.344192
6563.200000 6563.200000 0.500000 3.722949 93.512872 2.259533 0.343947
6563.302000 6563.300000 0.500000 3.722462 93.543341 2.261355 0.344305
6563.404000 6563.400000 0.500000 3.722308 93.541257 2.261675 0.344392
6563.500000 6563.500000 0.500000 3.721631 93.536694 2.263072 0.344930
6563.603000 6563.600000 0.500000 3.721756 93.544311 2.262997 0.344649
6563.701000 6563.700000 0.500000 3.721244 93.546375 2.264182 0.344844
6563.802000 6563.800000 0.500000 3.721147 93.556550 2.264706 0.344410
6563.902000 6563.900000 0.500000 3.720474 93.533457 2.265606 0.344463
6564.002000 6564.000000 0.500000 3.720351 93.532502 2.265883 0.345087
6564.100000 6564.100000 0.500000 3.720016 93.555645 2.267192 0.345017
6564.200000 6564.200000 0.500000 3.719846 93.569078 2.267897 0.344745
6564.296000 6564.300000 0.500000 3.719350 93.550241 2.268552 0.345256
6564.399000 6564.400000 0.500000 3.719174 93.516536 2.268155 0.345022
6564.497000 6564.500000 0.500000 3.718778 93.522402 2.269169 0.345007
6564.593000 6564.600000 0.500000 3.718544 93.526024 2.269777 0.345035
6564.700000 6564.700000 0.500000 3.718110 93.543828 2.271215 0.344778
6564.798000 6564.800000 0.500000 3.717987 93.516409 2.270841 0.345309
6564.901000 6564.900000 0.500000 3.717710 93.511982 2.271363 0.345028
6564.994000 6565.000000 0.500000 3.717436 93.507836 2.271874 0.345137
6565.101000 6565.100000 0.500000 3.717136 93.523183 2.272931 0.345194
6565.199000 6565.200000 0.500000 3.716816 93.532825 2.273887 0.345208
6565.300000 6565.300000 0.500000 3.716695 93.521269 2.273895 0.345856
6565.402000 6565.400000 0.500000 3.716481 93.498417 2.273826 0.345624
6565.496000 6565.500000 0.500000 3.716216 93.500432 2.274463 0.345431
6565.603000 6565.600000 0.500000 3.715634 93.511350 2.276085 0.345716
6565.701000 6565.700000 0.500000 3.715752 93.524451 2.276122 0.345687
6565.801000 6565.800000 0.500000 3.715152 93.511069 2.277158 0.345972
6565.903000 6565.900000 0.500000 3.714975 93.492232 2.277100 0.345305
6566.001000 6566.000000 0.500000 3.714453 93.498951 2.278446 0.346299
6566.106000 6566.100000 0.500000 3.714339 93.510098 2.279009 0.346161
6566.202000 6566.200000 0.500000 3.714018 93.491883 2.279270 0.346449
6566.302000 6566.300000 0.500000 3.714119 93.503636 2.279353 0.346272
6566.404000 6566.400000 0.500000 3.713770 93.497855 2.280031 0.346191
6566.498000 6566.500000 0.500000 3.713165 93.491890 2.281216 0.346740
6566.601000 6566.600000 0.500000 3.713000 93.495259 2.281701 0.347116
6566.699000 6566.700000 0.500000 3.712298 93.487652 2.283094 0.347011
6566.799000 6566.800000 0.500000 3.712390 93.487157 2.282878 0.347004
6566.901000 6566.900000 0.500000 3.712170 93.479307 2.283191 0.346676
6566.993000 6567.000000 0.500000 3.711857 93.479671 2.283878 0.346910
6567.097000 6567.100000 0.500000 3.711524 93.491863 2.284963 0.347328
6567.202000 6567.200000 0.500000 3.711398 93.492725 2.285272 0.347592
6567.298000 6567.300000 0.500000 3.711037 93.486951 2.285947 0.347390
6567.398000 6567.400000 0.500000 3.710831 93.484838 2.286376 0.347777
6567.496000 6567.500000 0.500000 3.710694 93.484096 2.286658 0.347774
6567.594000 6567.600000 0.500000 3.710247 93.472405 2.287372 0.347871
6567.700000 6567.700000 0.500000 3.709824 93.469607 2.288294 0.348082
6567.799000 6567.800000 0.500000 3.709523 93.474633 2.289097 0.348398
6567.899000 6567.900000 0.500000 3.709062 93.467240 2.289985 0.348294
6568.003000 6568.000000 0.500000 3.708998 93.459458 2.289950 0.348229
6568.095000 6568.100000 0.500000 3.708988 93.450715 2.289802 0.348489
6568.201000 6568.200000 0.500000 3.708565 93.470065 2.291188 0.348687
6568.304000 6568.300000 0.500000 3.708298 93.470749 2.291829 0.348766
6568.399000 6568.400000 0.500000 3.708060 93.467513 2.292295 0.349333
6568.504000 6568.500000 0.500000 3.707756 93.454827 2.292665 0.348852
6568.606000 6568.600000 0.500000 3.707836 93.462875 2.292746 0.348954
6568.704000 6568.700000 0.500000 3.707358 93.476749 2.294117 0.349025
6568.805000 6568.800000 0.500000 3.707156 93.489493 2.294940 0.349139
6568.904000 6568.900000 0.500000 3.707134 93.865130 2.304185 0.351177
6569.003000 6569.000000 0.700000 3.706668 130.834366 3.213208 0.489164
6570.088000 6570.080000 0.710000 3.704668 132.732635 3.266312 0.498822
6571.205000 6571.180000 0.730000 3.702493 136.526168 3.366998 0.513938
6572.291000 6572.290000 0.740000 3.700610 138.372822 3.419004 0.522469
6573.433000 6573.430000 0.750000 3.698145 140.212924 3.473021 0.530195
6574.590000 6574.580000 0.760000 3.695269 142.139200 3.530929 0.537726
6575.769000 6575.760000 0.780000 3.691426 145.891437 3.638024 0.553032
6576.958000 6576.950000 0.790000 3.687451 147.780303 3.699776 0.560909
6578.172000 6578.160000 0.800000 3.683301 149.668495 3.762686 0.569111
6579.397000 6579.390000 0.810000 3.679407 151.531447 3.824326 0.576594
6580.653000 6580.640000 0.830000 3.675942 155.323054 3.933681 0.590902
6581.918000 6581.910000 0.840000 3.672612 157.224928 3.995087 0.598456
6583.213000 6583.200000 0.850000 3.669069 159.085418 4.056733 0.606281
6584.518000 6584.510000 0.860000 3.665921 160.962703 4.117533 0.615263
6585.840000 6585.830000 0.880000 3.663253 164.745237 4.225544 0.632552
6587.189000 6587.180000 0.890000 3.660764 166.355592 4.277477 0.643770
6588.549000 6588.540000 0.900000 3.657926 168.499829 4.344908 0.656627
6589.942000 6589.930000 0.910000 3.655196 170.388362 4.405655 0.671060
6591.339000 6591.330000 0.930000 3.653112 174.173875 4.512896 0.690742
6592.759000 6592.750000 0.940000 3.651070 176.055424 4.571005 0.702008
6594.197000 6594.190000 0.950000 3.649270 177.960636 4.628758 0.713044
6595.664000 6595.650000 0.960000 3.647709 179.918785 4.687039 0.726033
6597.137000 6597.130000 0.980000 3.646354 183.646930 4.790622 0.745557
6598.642000 6598.630000 0.990000 3.644509 185.512443 4.848232 0.757540
6600.146000 6600.140000 1.000000 3.642580 187.400460 4.907013 0.767697
6601.695000 6601.680000 1.010000 3.640178 188.961004 4.959802 0.778127
6603.248000 6603.240000 1.030000 3.638279 193.112315 5.078384 0.795158
6604.820000 6604.810000 1.040000 3.635611 195.217795 5.147476 0.806538
6606.406000 6606.400000 1.050000 3.633265 197.272574 5.213858 0.815600
6608.022000 6608.010000 1.060000 3.630940 199.214827 5.277452 0.823775
6609.657000 6609.650000 1.080000 3.627932 202.973171 5.393244 0.840152
6611.311000 6611.300000 1.090000 3.625071 204.862381 5.459058 0.849657
6612.974000 6612.970000 1.100000 3.622053 206.739960 5.525679 0.857816
6614.665000 6614.650000 1.110000 3.618701 208.666567 5.595957 0.868627
6616.374000 6616.360000 1.130000 3.615789 212.417250 5.713129 0.885524
6618.108000 6618.090000 1.140000 3.612449 214.282893 5.782631 0.898146
6619.842000 6619.830000 1.150000 3.609354 216.609844 5.863454 0.910983
6621.615000 6621.600000 1.160000 3.605948 218.542556 5.936017 0.923962
6623.390000 6623.380000 1.180000 3.602707 222.275118 6.056970 0.944792
6625.189000 6625.180000 1.190000 3.599333 224.208531 6.130314 0.958399
6627.014000 6627.000000 1.200000 3.595918 226.122773 6.203823 0.972268
6628.848000 6628.840000 1.210000 3.592666 227.795410 6.270051 0.985790
6630.709000 6630.700000 1.230000 3.589472 231.796082 6.400567 1.008515
6632.588000 6632.580000 1.240000 3.586331 233.757099 6.474996 1.022370
6634.490000 6634.480000 1.250000 3.583238 235.578119 6.545701 1.034194
6636.408000 6636.400000 1.260000 3.580070 237.481778 6.619487 1.047250
6638.338000 6638.330000 1.280000 3.576534 241.321345 6.750376 1.067793
6640.303000 6640.290000 1.290000 3.572667 243.151158 6.827909 1.081295
6642.264000 6642.260000 1.300000 3.568825 245.026878 6.907008 1.095473
6644.269000 6644.260000 1.310000 3.564792 246.934632 6.988947 1.110258
6646.276000 6646.270000 1.330000 3.560906 250.727313 7.123887 1.135147
6648.310000 6648.300000 1.340000 3.556874 252.690684 7.208738 1.152018
6650.361000 6650.350000 1.350000 3.552951 254.586443 7.291370 1.168001
6652.427000 6652.420000 1.360000 3.548926 256.487943 7.375427 1.184922
6654.522000 6654.510000 1.380000 3.544920 260.288763 7.514792 1.210187
6656.618000 6656.610000 1.390000 3.541181 262.217393 7.598797 1.227150
6658.752000 6658.740000 1.400000 3.537305 264.114836 7.683555 1.243068
6660.901000 6660.890000 1.410000 3.533418 266.061075 7.770282 1.257904
6663.058000 6663.050000 1.430000 3.529676 269.837020 7.910132 1.282039
6665.243000 6665.230000 1.440000 3.525806 271.782645 7.998052 1.296465
6667.453000 6667.440000 1.450000 3.521802 273.706285 8.086962 1.310659
6669.670000 6669.660000 1.460000 3.518000 275.596475 8.173878 1.324487
6671.908000 6671.900000 1.480000 3.513759 279.408009 8.322163 1.348334
6674.157000 6674.160000 1.490000 3.509816 281.357058 8.413164 1.364274
6676.439000 6676.440000 1.500000 3.505732 283.281172 8.505444 1.380043
6678.749000 6678.740000 1.510000 3.501746 285.196533 8.597267 1.396739
6681.048000 6681.050000 1.530000 3.497636 288.962833 8.746513 1.421966
6683.390000 6683.390000 1.540000 3.493823 290.892746 8.838637 1.439395
6685.743000 6685.740000 1.550000 3.489729 292.779987 8.932496 1.457922
6688.122000 6688.120000 1.560000 3.485832 294.644123 9.024427 1.476328
6690.513000 6690.510000 1.580000 3.481637 298.436017 9.179001 1.506026
6692.920000 6692.920000 1.590000 3.477436 300.275035 9.274476 1.525808
6695.350000 6695.350000 1.600000 3.473100 302.257961 9.376279 1.548034
6697.795000 6697.800000 1.610000 3.468853 304.089505 9.473156 1.568970
6700.267000 6700.270000 1.630000 3.464465 307.906111 9.634261 1.600453
6702.757000 6702.760000 1.640000 3.460300 309.724135 9.731630 1.621758
6705.269000 6705.270000 1.650000 3.456086 311.709423 9.835315 1.643597
6707.790000 6707.790000 1.660000 3.451815 313.521645 9.934880 1.664296
6710.345000 6710.340000 1.680000 3.447417 317.307109 10.099273 1.695335
6712.898000 6712.900000 1.690000 3.443127 319.151563 10.201590 1.714782
6715.492000 6715.490000 1.700000 3.438830 321.042755 10.306167 1.734654
6718.086000 6718.090000 1.710000 3.434527 322.907440 10.410725 1.754950
6720.712000 6720.710000 1.730000 3.430410 326.715865 10.577012 1.785604
6723.350000 6723.350000 1.740000 3.425930 328.572506 10.684918 1.805348
6726.013000 6726.010000 1.750000 3.421998 330.457930 10.788506 1.825775
6728.692000 6728.690000 1.760000 3.417184 332.358355 10.902931 1.847491
6731.386000 6731.390000 1.780000 3.412033 336.051503 11.080975 1.880200
6734.110000 6734.110000 1.790000 3.407186 337.914631 11.196604 1.902293
6736.839000 6736.840000 1.800000 3.402299 339.882449 11.316940 1.925715
6739.600000 6739.600000 1.810000 3.397505 341.617418 11.429357 1.947460
6742.370000 6742.370000 1.830000 3.392460 345.506983 11.617881 1.983394
6745.164000 6745.170000 1.840000 3.387763 347.145610 11.727950 2.006331
6747.980000 6747.980000 1.850000 3.382853 349.108550 11.852384 2.033295
6750.815000 6750.810000 1.860000 3.377915 350.904231 11.972426 2.058889
6753.663000 6753.660000 1.880000 3.373163 355.200638 12.176685 2.099328
6756.538000 6756.530000 1.890000 3.368189 357.183252 12.305709 2.127812
6759.422000 6759.420000 1.900000 3.363265 358.819481 12.423016 2.152058
6762.322000 6762.320000 1.910000 3.358225 360.659851 12.549861 2.180011
6765.251000 6765.250000 1.930000 3.353122 364.290731 12.741038 2.217189
6768.200000 6768.200000 1.940000 3.348062 366.430693 12.880997 2.248434
6771.164000 6771.160000 1.950000 3.343105 368.683276 13.024552 2.278368
6774.142000 6774.140000 1.960000 3.338046 370.572419 13.157575 2.307604
6777.152000 6777.150000 1.980000 3.333095 374.230252 13.353514 2.348819
6780.166000 6780.170000 1.990000 3.328091 376.051789 13.485735 2.377685
6783.207000 6783.210000 2.000000 3.323053 377.793593 13.616666 2.407502
6786.270000 6786.270000 2.010000 3.317844 379.791377 13.760140 2.439075
6789.345000 6789.350000 2.030000 3.312709 383.293901 13.958558 2.479848
6792.447000 6792.450000 2.040000 3.307573 382.124438 13.987633 2.490800
6795.558000 6795.560000 2.050000 3.302512 385.524455 14.183669 2.531232
6798.709000 6798.700000 2.060000 3.297225 388.712636 14.376959 2.569951
6801.847000 6801.850000 2.080000 3.292160 392.529953 14.591714 2.613682
6805.035000 6805.030000 2.090000 3.287040 394.313792 14.733207 2.643946
6808.223000 6808.220000 2.100000 3.281840 396.594586 14.895760 2.678271
6811.427000 6811.430000 2.110000 3.276616 373.146100 14.088411 2.537230
6814.658000 6814.660000 2.130000 3.271326 400.019172 15.183129 2.739453
6817.919000 6817.920000 2.140000 3.266162 402.692147 15.363791 2.777304
6821.180000 6821.180000 2.150000 3.260934 391.456997 15.013414 2.718594
6824.468000 6824.470000 2.160000 3.255636 403.901436 15.572941 2.824923
6827.781000 6827.780000 2.180000 3.250159 408.711045 15.844880 2.881740
6831.111000 6831.110000 2.190000 3.244853 410.818549 16.011285 2.919664
6834.454000 6834.450000 2.200000 3.239366 412.354765 16.159632 2.953238
6837.829000 6837.820000 2.210000 3.233871 413.672409 16.300651 2.986355
6841.206000 6841.200000 2.230000 3.228061 408.342704 16.184475 2.973723
6844.606000 6844.600000 2.240000 3.222676 418.506289 16.676808 3.070159
6848.032000 6848.030000 2.250000 3.217193 420.684688 16.855644 3.111286
6851.468000 6851.470000 2.260000 3.211619 422.043232 17.004596 3.148620
6854.933000 6854.930000 2.280000 3.206071 425.759855 17.249850 3.201321
6858.402000 6858.400000 2.290000 3.200484 427.451784 17.415390 3.240838
6861.907000 6861.900000 2.300000 3.194743 428.269493 17.549230 3.275251
6865.425000 6865.420000 2.310000 3.189194 430.466343 17.737376 3.319048
6868.971000 6868.960000 2.330000 3.183698 434.403194 17.998266 3.375108
6872.517000 6872.510000 2.340000 3.177976 436.208892 18.176796 3.416812
6876.095000 6876.090000 2.350000 3.172236 438.275005 18.367979 3.461844
6879.690000 6879.680000 2.360000 3.166525 439.855797 18.539865 3.503772
6883.298000 6883.290000 2.380000 3.160901 444.102782 18.824465 3.565485
6886.927000 6886.920000 2.390000 3.155293 446.018241 19.011893 3.609159
6890.575000 6890.570000 2.400000 3.149580 447.766883 19.195844 3.652720
6894.240000 6894.240000 2.410000 3.143994 449.573913 19.381212 3.696696
6897.932000 6897.930000 2.430000 3.138216 453.372382 19.658286 3.757457
6901.644000 6901.640000 2.440000 3.132461 454.769361 19.832653 3.799992
6905.363000 6905.360000 2.450000 3.126592 456.819553 20.039298 3.849038
6909.113000 6909.110000 2.460000 3.120672 458.236589 20.220858 3.891916
6912.870000 6912.870000 2.480000 3.114955 461.516500 20.482276 3.951116
6916.660000 6916.660000 2.490000 3.108936 463.102684 20.676779 3.997367
6920.462000 6920.460000 2.500000 3.103105 464.820987 20.874860 4.046636
6924.285000 6924.280000 2.510000 3.097202 467.310752 21.111038 4.103455
6928.126000 6928.120000 2.530000 3.091378 470.638930 21.385593 4.166060
6931.980000 6931.980000 2.540000 3.085281 472.551503 21.603685 4.219254
6935.863000 6935.860000 2.550000 3.079276 473.869183 21.794468 4.266268
6939.762000 6939.760000 2.560000 3.073274 476.431416 22.044100 4.326618
6943.683000 6943.680000 2.580000 3.067286 479.957603 22.340698 4.395807
6947.612000 6947.610000 2.590000 3.061160 481.694933 22.559355 4.450948
6951.572000 6951.570000 2.600000 3.055166 483.069603 22.759746 4.500267
6955.541000 6955.540000 2.610000 3.049237 484.792175 22.976697 4.555938
6959.544000 6959.540000 2.630000 3.043062 488.362028 23.289321 4.629855
6963.551000 6963.550000 2.640000 3.037157 489.707989 23.491779 4.683414
6967.588000 6967.580000 2.650000 3.030963 491.346625 23.716995 4.739341
6971.634000 6971.630000 2.660000 3.025046 492.929278 23.934483 4.795129
6975.701000 6975.700000 2.680000 3.018842 496.391025 24.252464 4.873052
6979.794000 6979.790000 2.690000 3.012705 497.789253 24.470593 4.929478
6983.907000 6983.900000 2.700000 3.006724 499.399139 24.697002 4.989591
6988.022000 6988.020000 2.710000 3.000487 500.965665 24.929425 5.048471
6992.175000 6992.170000 2.730000 2.994217 504.337517 25.255136 5.127769
6996.330000 6996.330000 2.740000 2.988091 505.966804 25.492277 5.187490
7000.527000 7000.520000 2.750000 2.982028 507.432560 25.721807 5.248905
7004.725000 7004.720000 2.760000 2.975667 509.065478 25.969124 5.312145
7008.951000 7008.940000 2.780000 2.969385 512.311557 26.299566 5.393575
7013.185000 7013.180000 2.790000 2.963099 513.897883 26.547194 5.458319
7017.443000 7017.440000 2.800000 2.956824 515.441997 26.794527 5.522688
7021.729000 7021.720000 2.810000 2.950490 516.753522 27.033568 5.584590
7026.025000 7026.020000 2.830000 2.944195 520.059712 27.378248 5.671228
7030.341000 7030.340000 2.840000 2.937908 521.525761 27.628467 5.737931
7034.677000 7034.670000 2.850000 2.931525 522.766039 27.871720 5.803703
7039.035000 7039.030000 2.860000 2.925140 524.490717 28.142755 5.874318
7043.404000 7043.400000 2.880000 2.918928 527.637040 28.487960 5.962176
7047.805000 7047.800000 2.890000 2.912559 529.037243 28.746075 6.032656
7052.212000 7052.210000 2.900000 2.906210 530.405446 29.003862 6.102047
7056.646000 7056.640000 2.910000 2.899825 531.811189 29.267072 6.175016
7061.096000 7061.090000 2.930000 2.893594 533.531827 29.545298 6.249258
7065.567000 7065.560000 2.940000 2.887250 536.715361 29.910712 6.343830
7070.059000 7070.050000 2.950000 2.880915 534.343004 29.967826 6.374905
7074.563000 7074.560000 2.960000 2.874623 535.033217 30.195909 6.437739
7079.082000 7079.080000 2.980000 2.868216 542.639575 30.821895 6.588786
7083.632000 7083.630000 2.990000 2.861911 543.856011 31.086427 6.663499
7088.192000 7088.190000 3.000000 2.855651 545.746225 31.390376 6.746818
7092.784000 7092.780000 3.010000 2.849397 547.221680 31.672739 6.826773
7097.383000 7097.380000 3.030000 2.843343 550.502104 32.056079 6.926742
7102.004000 7102.000000 3.040000 2.837475 552.719061 32.374672 7.015153
7106.652000 7106.640000 3.050000 2.832064 554.382345 32.648218 7.093602
7111.305000 7111.300000 3.060000 2.832441 554.859099 32.664033 7.110393
7115.984000 7115.980000 3.080000 2.832147 557.233862 32.813431 7.158538
7120.687000 7120.680000 3.090000 2.873964 556.926207 31.451034 6.872571
7125.405000 7125.400000 3.100000 3.074693 547.485533 25.295926 5.534420
7130.132000 7130.130000 3.110000 3.205008 535.787433 21.730778 4.761043
7134.895000 7134.890000 3.130000 3.274690 538.513228 20.371213 4.475729
7139.667000 7139.660000 3.140000 3.190554 544.484219 22.405624 4.935772
7144.468000 7144.460000 3.150000 3.128935 547.346696 23.954277 5.292971
7149.277000 7149.270000 3.160000 3.109539 550.523146 24.565178 5.442871
7154.104000 7154.100000 3.180000 3.067834 556.446302 25.887096 5.751101
7158.951000 7158.950000 3.190000 3.049250 558.525710 26.471016 5.896712
7163.826000 7163.820000 3.200000 3.047106 559.452893 26.571838 5.936442
7168.717000 7168.710000 3.210000 3.052647 559.890337 26.445704 5.924157
7173.628000 7173.620000 3.230000 3.068115 562.630104 26.167226 5.877445
7178.547000 7178.540000 3.240000 3.070151 563.334499 26.146732 5.888069
7183.491000 7183.490000 3.250000 3.065544 564.265906 26.310847 5.939761
7188.450000 7188.450000 3.260000 3.058600 565.332682 26.544273 6.010897
7193.440000 7193.440000 3.280000 3.051004 568.848844 26.913032 6.110425
7198.448000 7198.440000 3.290000 3.042947 569.969095 27.184248 6.189186
7203.468000 7203.460000 3.300000 3.033430 572.232861 27.553137 6.289952
7208.510000 7208.500000 3.310000 3.026850 573.848610 27.813441 6.366925
7213.564000 7213.560000 3.330000 3.017959 576.971364 28.214511 6.475691
7218.641000 7218.640000 3.340000 3.004263 578.421187 28.675458 6.600283
7223.743000 7223.740000 3.350000 2.993437 578.755497 29.004391 6.694909
7228.867000 7228.860000 3.360000 2.983999 581.366107 29.411392 6.808598
7233.993000 7233.990000 3.380000 2.973903 583.769352 29.832593 6.924915
7239.155000 7239.150000 3.390000 2.966319 584.568831 30.100932 7.006257
7244.321000 7244.320000 3.400000 2.960886 586.208700 30.349771 7.083026
7249.522000 7249.520000 3.410000 2.957521 586.279104 30.455771 7.126610
7254.732000 7254.730000 3.430000 2.954271 584.505980 30.462456 7.148345
7259.963000 7259.960000 3.440000 2.949968 589.789165 30.870362 7.263802
7265.212000 7265.210000 3.450000 2.943962 589.355959 31.033471 7.322694
7270.482000 7270.480000 3.460000 2.935134 595.143623 31.616172 7.478769
7275.773000 7275.770000 3.480000 2.925318 598.421674 32.104073 7.616606
7281.081000 7281.080000 3.490000 2.916616 588.785936 31.863054 7.579146
