# XDI/1.0 BlueSky/1.5.3
# Beamline.name: 6BM
# Beamline.xray_source: NSLS-II three-pole wiggler
# Beamline.collimation: paraboloid mirror, 5 nm Rh on 30 nm Pt
# Beamline.focusing: not in use
# Beamline.harmonic_rejection: flat mirror, Si stripe, pitch = 7.0 mrad relative to beam
# Detector.i0: 10 cm N2
# Detector.i1: 25 cm N2
# Detector.i2: 25 cm N2
# Element.symbol: Mn
# Element.edge: K
# Facility.name: NSLS-II
# Facility.energy: 3.0
# Facility.current: 399.4
# Facility.mode: top-off
# Facility.gup: 305081
# Facility.saf: 305123
# Mono.name: Si(111)
# Mono.d_spacing: 3.1353241
# Mono.encoder_resolution: 0.0000050 deg/ct
# Mono.angle_offset: 16.0581090 deg
# Mono.scan_mode: fixed exit
# Mono.scan_type: step
# Mono.direction: forward in energy
# Sample.name: CaMnSi2O6 - LT
# Sample.prep: Powder in polyethylene glycol pellet
# Sample.x_position: -120.140 mm
# Sample.y_position: 112.312 mm
# Scan.experimenters: Neil Hyatt, Martin Stennett, Lucy Mottram
# Scan.edge_energy: 6539.0
# Scan.start_time: 2019-11-11T13:22:12
# Scan.end_time: 2019-11-11T22:09:21
# Scan.transient_id: 17893
# Scan.uid: a6dae641-e6e0-43e5-a9c2-374a0dabe858
# Scan.plot_hint: ln(I0/It)  --  ln($5/$6)
# Scan.sequence: merge of 3 scans
# Column.1: energy eV
# Column.2: requested_energy eV
# Column.3: measurement_time seconds
# Column.4: mutrans
# Column.5: i0
# Column.6: itrans
# Column.7: irefer
# /////
#  B â€“ Iron Cap Mine; Graham Country, Arizona
# -----
# energy   requested_energy   measurement_time   mutrans   i0   itrans   irefer
6338.999000 6339.000000 0.500000 3.664017 44.907917 1.150974 0.267033
6349.013000 6349.000000 0.500000 3.644947 45.022819 1.176109 0.274630
6359.013000 6359.000000 0.500000 3.625350 45.139346 1.202504 0.283161
6369.024000 6369.000000 0.500000 3.606268 45.259541 1.228944 0.291047
6379.019000 6379.000000 0.500000 3.587255 45.385310 1.256012 0.299810
6389.009000 6389.000000 0.500000 3.568508 45.503583 1.283087 0.308022
6399.013000 6399.000000 0.500000 3.549472 45.606777 1.310732 0.316474
6409.009000 6409.000000 0.500000 3.530888 45.712014 1.338392 0.325485
6419.012000 6419.000000 0.500000 3.512454 45.880122 1.368311 0.334534
6429.011000 6429.000000 0.500000 3.493571 45.969485 1.397113 0.344584
6439.007000 6439.000000 0.500000 3.475243 46.058374 1.425704 0.353467
6449.007000 6449.000000 0.500000 3.457335 46.055253 1.451366 0.362054
6459.005000 6459.000000 0.500000 3.438862 46.066502 1.478789 0.371557
6469.008000 6469.000000 0.500000 3.420950 46.280612 1.512511 0.382288
6478.999000 6479.000000 0.500000 3.403088 46.348735 1.542027 0.392213
6489.001000 6489.000000 0.500000 3.385236 46.445369 1.573074 0.402389
6498.956000 6499.000000 0.500000 3.367727 46.528495 1.603644 0.412525
6508.992000 6509.000000 0.500000 3.350280 46.547688 1.632672 0.422337
6510.993000 6511.000000 0.500000 3.347098 46.629926 1.640734 0.425120
6512.988000 6513.000000 0.500000 3.343734 46.641923 1.646686 0.427278
6514.992000 6515.000000 0.500000 3.340200 46.659190 1.653130 0.429372
6516.987000 6517.000000 0.500000 3.336691 46.676112 1.659537 0.431455
6518.991000 6519.000000 0.500000 3.333502 46.688269 1.665254 0.432900
6520.990000 6521.000000 0.500000 3.330449 46.714190 1.671318 0.434959
6522.990000 6523.000000 0.500000 3.327094 46.728296 1.677305 0.436927
6524.994000 6525.000000 0.500000 3.324252 46.747395 1.682867 0.438521
6526.989000 6527.000000 0.500000 3.321260 46.759208 1.688353 0.439690
6528.997000 6529.000000 0.500000 3.318290 46.771383 1.693823 0.441552
6529.090000 6529.100000 0.500000 3.318333 46.766328 1.693563 0.441276
6529.187000 6529.200000 0.500000 3.318067 46.768076 1.694052 0.441538
6529.284000 6529.300000 0.500000 3.317835 46.765868 1.694335 0.441635
6529.386000 6529.400000 0.500000 3.317998 46.763591 1.694127 0.441350
6529.485000 6529.500000 0.500000 3.317883 46.755232 1.693930 0.441734
6529.581000 6529.600000 0.500000 3.317263 46.754775 1.694934 0.441813
6529.684000 6529.700000 0.500000 3.317393 46.754017 1.694712 0.441437
6529.786000 6529.800000 0.500000 3.317105 46.749461 1.695029 0.441439
6529.885000 6529.900000 0.500000 3.317183 46.747642 1.694827 0.441631
6529.983000 6530.000000 0.500000 3.317186 46.753122 1.695028 0.441384
6530.085000 6530.100000 0.500000 3.317002 46.748856 1.695181 0.441693
6530.186000 6530.200000 0.500000 3.316558 46.743829 1.695744 0.441919
6530.283000 6530.300000 0.500000 3.316579 46.747752 1.695862 0.441760
6530.385000 6530.400000 0.500000 3.316501 46.752904 1.696157 0.442169
6530.487000 6530.500000 0.500000 3.316016 46.750703 1.696871 0.441877
6530.584000 6530.600000 0.500000 3.316157 46.747937 1.696584 0.441587
6530.685000 6530.700000 0.500000 3.316262 46.743243 1.696237 0.441761
6530.789000 6530.800000 0.500000 3.315994 46.738037 1.696478 0.441610
6530.889000 6530.900000 0.500000 3.315757 46.736763 1.696842 0.441868
6530.986000 6531.000000 0.500000 3.315828 46.739530 1.696856 0.441772
6531.092000 6531.100000 0.500000 3.315749 46.744072 1.697130 0.441677
6531.189000 6531.200000 0.500000 3.315270 46.739180 1.697727 0.441975
6531.289000 6531.300000 0.500000 3.315211 46.739410 1.697874 0.441997
6531.392000 6531.400000 0.500000 3.315072 46.740159 1.698133 0.441995
6531.494000 6531.500000 0.500000 3.315103 46.734970 1.697912 0.441879
6531.591000 6531.600000 0.500000 3.315157 46.740466 1.698005 0.441933
6531.695000 6531.700000 0.500000 3.314751 46.742434 1.698750 0.442093
6531.795000 6531.800000 0.500000 3.314717 46.740777 1.698789 0.441901
6531.892000 6531.900000 0.500000 3.314701 46.733872 1.698523 0.442079
6531.996000 6532.000000 0.500000 3.314617 46.733803 1.698683 0.441642
6532.099000 6532.100000 0.500000 3.314072 46.734734 1.699634 0.442042
6532.197000 6532.200000 0.500000 3.314011 46.737202 1.699830 0.442154
6532.298000 6532.300000 0.500000 3.314214 46.787362 1.701315 0.442404
6532.398000 6532.400000 0.500000 3.314149 46.791408 1.701559 0.442320
6532.497000 6532.500000 0.500000 3.313864 46.789647 1.701990 0.442646
6532.598000 6532.600000 0.500000 3.313923 46.789220 1.701874 0.442369
6532.700000 6532.700000 0.500000 3.313617 46.794770 1.702598 0.442311
6532.799000 6532.800000 0.500000 3.313578 46.856607 1.704904 0.442953
6532.896000 6532.900000 0.500000 3.313697 46.854926 1.704654 0.442747
6532.998000 6533.000000 0.500000 3.313600 46.849818 1.704638 0.442877
6533.099000 6533.100000 0.500000 3.313290 46.848973 1.705119 0.442813
6533.197000 6533.200000 0.500000 3.312897 46.851221 1.705865 0.442642
6533.300000 6533.300000 0.500000 3.313045 46.849143 1.705554 0.442639
6533.398000 6533.400000 0.500000 3.313227 46.845515 1.705116 0.442490
6533.499000 6533.500000 0.500000 3.312958 46.851110 1.705777 0.442794
6533.598000 6533.600000 0.500000 3.313097 46.851914 1.705559 0.442372
6533.696000 6533.700000 0.500000 3.312769 46.850564 1.706055 0.442454
6533.795000 6533.800000 0.500000 3.312731 46.852088 1.706217 0.442191
6533.896000 6533.900000 0.500000 3.312508 46.848941 1.706421 0.441865
6533.996000 6534.000000 0.500000 3.312441 46.847723 1.706517 0.441983
6534.095000 6534.100000 0.500000 3.312409 46.846317 1.706532 0.441774
6534.194000 6534.200000 0.500000 3.312330 46.849917 1.706784 0.441979
6534.298000 6534.300000 0.500000 3.312401 46.848263 1.706627 0.441445
6534.395000 6534.400000 0.500000 3.312187 46.847006 1.706906 0.441796
6534.496000 6534.500000 0.500000 3.312165 46.846009 1.706966 0.441602
6534.600000 6534.600000 0.500000 3.312346 46.843881 1.706551 0.441320
6534.697000 6534.700000 0.500000 3.311993 46.845081 1.707180 0.440945
6534.796000 6534.800000 0.500000 3.311882 46.837726 1.707123 0.440845
6534.898000 6534.900000 0.500000 3.312011 46.840843 1.707009 0.440242
6534.999000 6535.000000 0.500000 3.311927 46.840128 1.707127 0.440175
6535.096000 6535.100000 0.500000 3.311821 46.842941 1.707410 0.440104
6535.200000 6535.200000 0.500000 3.311695 46.840512 1.707535 0.439749
6535.299000 6535.300000 0.500000 3.311424 46.836409 1.707846 0.439504
6535.399000 6535.400000 0.500000 3.311270 46.840268 1.708262 0.439653
6535.500000 6535.500000 0.500000 3.311277 46.833240 1.707985 0.438298
6535.601000 6535.600000 0.500000 3.311497 46.837361 1.707763 0.437942
6535.699000 6535.700000 0.500000 3.311527 46.836611 1.707700 0.437633
6535.802000 6535.800000 0.500000 3.311183 46.839370 1.708366 0.437647
6535.902000 6535.900000 0.500000 3.311367 46.835399 1.707912 0.436507
6535.998000 6536.000000 0.500000 3.311387 46.833684 1.707836 0.435892
6536.100000 6536.100000 0.500000 3.311338 46.835011 1.707942 0.435309
6536.204000 6536.200000 0.500000 3.311143 46.836172 1.708326 0.434096
6536.300000 6536.300000 0.500000 3.311375 46.841247 1.708111 0.433590
6536.399000 6536.400000 0.500000 3.311365 46.837054 1.707973 0.431865
6536.503000 6536.500000 0.500000 3.311463 46.832988 1.707661 0.431144
6536.602000 6536.600000 0.500000 3.311260 46.832453 1.707979 0.429785
6536.699000 6536.700000 0.500000 3.311569 46.833112 1.707504 0.427730
6536.799000 6536.800000 0.500000 3.311459 46.830280 1.707562 0.425947
6536.898000 6536.900000 0.500000 3.311597 46.830933 1.707362 0.423889
6536.995000 6537.000000 0.500000 3.311682 46.829661 1.707165 0.421379
6537.098000 6537.100000 0.500000 3.312100 46.828518 1.706421 0.418124
6537.198000 6537.200000 0.500000 3.312157 46.833491 1.706497 0.415494
6537.296000 6537.300000 0.500000 3.312314 46.833383 1.706217 0.411486
6537.396000 6537.400000 0.500000 3.312740 46.828818 1.705352 0.407512
6537.497000 6537.500000 0.500000 3.313045 46.829460 1.704843 0.403729
6537.594000 6537.600000 0.500000 3.313081 46.826995 1.704675 0.399873
6537.698000 6537.700000 0.500000 3.313814 46.828184 1.703477 0.395429
6537.797000 6537.800000 0.500000 3.314460 46.828847 1.702400 0.391913
6537.898000 6537.900000 0.500000 3.315135 46.823430 1.701060 0.388093
6537.997000 6538.000000 0.500000 3.315865 46.823437 1.699817 0.384761
6538.099000 6538.100000 0.500000 3.316483 46.821424 1.698659 0.381372
6538.196000 6538.200000 0.500000 3.317692 46.825026 1.696781 0.377702
6538.297000 6538.300000 0.500000 3.318606 46.824924 1.695225 0.374752
6538.401000 6538.400000 0.500000 3.319434 46.823327 1.693735 0.372667
6538.499000 6538.500000 0.500000 3.319978 46.823030 1.692796 0.369916
6538.597000 6538.600000 0.500000 3.320994 46.821144 1.691071 0.367720
6538.700000 6538.700000 0.500000 3.321538 46.823681 1.690209 0.365507
6538.801000 6538.800000 0.500000 3.321914 46.820751 1.689466 0.363576
6538.900000 6538.900000 0.500000 3.322160 46.822275 1.689109 0.361719
6539.000000 6539.000000 0.500000 3.322406 46.822292 1.688690 0.360667
6539.103000 6539.100000 0.500000 3.322640 46.825100 1.688400 0.358663
6539.198000 6539.200000 0.500000 3.322748 46.821571 1.688093 0.356927
6539.303000 6539.300000 0.500000 3.322733 46.876490 1.690098 0.356320
6539.402000 6539.400000 0.500000 3.322708 46.877400 1.690169 0.355426
6539.500000 6539.500000 0.500000 3.322756 46.875813 1.690037 0.353735
6539.601000 6539.600000 0.500000 3.322709 46.876270 1.690126 0.352770
6539.704000 6539.700000 0.500000 3.322182 46.875616 1.691015 0.351576
6539.799000 6539.800000 0.500000 3.321763 46.872852 1.691579 0.350709
6539.902000 6539.900000 0.500000 3.321217 46.873342 1.692546 0.350054
6540.001000 6540.000000 0.500000 3.320596 46.876184 1.693693 0.349290
6540.100000 6540.100000 0.500000 3.320186 46.876426 1.694387 0.348448
6540.200000 6540.200000 0.500000 3.319465 46.879881 1.695737 0.347603
6540.299000 6540.300000 0.500000 3.318922 46.880359 1.696692 0.346726
6540.402000 6540.400000 0.500000 3.318127 46.874538 1.697837 0.346577
6540.499000 6540.500000 0.500000 3.317906 46.873724 1.698169 0.345358
6540.600000 6540.600000 0.500000 3.317785 46.869901 1.698237 0.345036
6540.699000 6540.700000 0.500000 3.317728 46.873384 1.698460 0.344810
6540.798000 6540.800000 0.500000 3.317291 46.871418 1.699123 0.344387
6540.899000 6540.900000 0.500000 3.317720 46.872518 1.698448 0.343440
6540.998000 6541.000000 0.500000 3.317509 46.870797 1.698724 0.343345
6541.095000 6541.100000 0.500000 3.317834 46.867230 1.698077 0.343162
6541.198000 6541.200000 0.500000 3.318299 46.871340 1.697402 0.342752
6541.298000 6541.300000 0.500000 3.318908 46.872168 1.696415 0.341949
6541.396000 6541.400000 0.500000 3.318941 46.869809 1.696275 0.342482
6541.498000 6541.500000 0.500000 3.319746 46.871471 1.694957 0.341899
6541.601000 6541.600000 0.500000 3.320224 46.869320 1.694076 0.341767
6541.698000 6541.700000 0.500000 3.320657 46.865485 1.693209 0.341446
6541.797000 6541.800000 0.500000 3.321631 46.863481 1.691508 0.340778
6541.901000 6541.900000 0.500000 3.322544 46.864838 1.689957 0.340383
6541.999000 6542.000000 0.500000 3.323521 46.861028 1.688200 0.339587
6542.100000 6542.100000 0.500000 3.324514 46.858245 1.686425 0.338877
6542.204000 6542.200000 0.500000 3.325388 46.859982 1.684934 0.338536
6542.301000 6542.300000 0.500000 3.326745 46.864142 1.682868 0.337624
6542.400000 6542.400000 0.500000 3.328202 46.864998 1.680458 0.336827
6542.503000 6542.500000 0.500000 3.329992 46.858074 1.677128 0.335286
6542.600000 6542.600000 0.500000 3.331601 46.861864 1.674686 0.333957
6542.701000 6542.700000 0.500000 3.333794 46.865622 1.671194 0.333264
6542.802000 6542.800000 0.500000 3.335899 46.862661 1.667415 0.331348
6542.903000 6542.900000 0.500000 3.338430 46.864595 1.663318 0.330138
6543.000000 6543.000000 0.500000 3.341336 46.861297 1.658487 0.328685
6543.104000 6543.100000 0.500000 3.344308 46.860141 1.653374 0.326879
6543.204000 6543.200000 0.500000 3.347592 46.858614 1.647927 0.325253
6543.301000 6543.300000 0.500000 3.351397 46.860268 1.641875 0.323560
6543.402000 6543.400000 0.500000 3.355515 46.854736 1.634828 0.320764
6543.504000 6543.500000 0.500000 3.359879 46.848187 1.627394 0.318811
6543.600000 6543.600000 0.500000 3.364919 46.850468 1.619515 0.316481
6543.699000 6543.700000 0.500000 3.370124 46.857087 1.611359 0.314372
6543.803000 6543.800000 0.500000 3.376242 46.861305 1.601301 0.311782
6543.897000 6543.900000 0.500000 3.382699 46.855750 1.591304 0.309599
6543.996000 6544.000000 0.500000 3.389822 46.849687 1.579953 0.306718
6544.101000 6544.100000 0.500000 3.397430 46.847476 1.567385 0.303321
6544.196000 6544.200000 0.500000 3.406066 46.850010 1.554534 0.300663
6544.297000 6544.300000 0.500000 3.415178 46.848244 1.540026 0.297060
6544.400000 6544.400000 0.500000 3.425458 46.844811 1.523875 0.293448
6544.497000 6544.500000 0.500000 3.435586 46.840588 1.508574 0.289651
6544.596000 6544.600000 0.500000 3.446926 46.841981 1.491722 0.286225
6544.697000 6544.700000 0.500000 3.458952 46.839890 1.473583 0.281895
6544.798000 6544.800000 0.500000 3.471734 46.837407 1.455037 0.277594
6544.895000 6544.900000 0.500000 3.484635 46.835865 1.436592 0.273768
6544.998000 6545.000000 0.500000 3.498029 46.831600 1.416851 0.269317
6545.099000 6545.100000 0.500000 3.511910 46.884282 1.399016 0.265029
6545.195000 6545.200000 0.500000 3.526233 46.885248 1.379683 0.260747
6545.297000 6545.300000 0.500000 3.540578 46.881084 1.359255 0.256329
6545.400000 6545.400000 0.500000 3.555788 46.874333 1.338251 0.251875
6545.499000 6545.500000 0.500000 3.570232 46.870577 1.319482 0.247806
6545.598000 6545.600000 0.500000 3.585059 46.869063 1.299990 0.243213
6545.701000 6545.700000 0.500000 3.599552 46.861154 1.280871 0.239410
6545.800000 6545.800000 0.500000 3.613836 46.866055 1.262960 0.235075
6545.899000 6545.900000 0.500000 3.626892 46.916416 1.248131 0.231833
6546.004000 6546.000000 0.500000 3.640115 46.913708 1.231020 0.227626
6546.101000 6546.100000 0.500000 3.652084 46.910805 1.216683 0.224585
6546.202000 6546.200000 0.500000 3.662810 46.908138 1.203774 0.221790
6546.305000 6546.300000 0.500000 3.672766 46.905952 1.191254 0.218317
6546.402000 6546.400000 0.500000 3.682358 46.903816 1.180383 0.215416
6546.500000 6546.500000 0.500000 3.690650 46.897463 1.170530 0.212985
6546.603000 6546.600000 0.500000 3.698495 46.896640 1.160966 0.210785
6546.704000 6546.700000 0.500000 3.705672 46.896384 1.152837 0.208237
6546.801000 6546.800000 0.500000 3.712638 46.891591 1.144889 0.206114
6546.902000 6546.900000 0.500000 3.718165 46.891812 1.138463 0.204683
6547.003000 6547.000000 0.500000 3.723367 46.889223 1.132465 0.202938
6547.099000 6547.100000 0.500000 3.729420 46.888029 1.125680 0.200913
6547.198000 6547.200000 0.500000 3.733923 46.883404 1.120540 0.199548
6547.304000 6547.300000 0.500000 3.738814 46.880907 1.114799 0.197784
6547.398000 6547.400000 0.500000 3.743267 46.871013 1.109884 0.196301
6547.499000 6547.500000 0.500000 3.747581 46.874172 1.105015 0.194716
6547.600000 6547.600000 0.500000 3.751777 46.873897 1.100412 0.193103
6547.697000 6547.700000 0.500000 3.756160 46.870429 1.095651 0.191716
6547.797000 6547.800000 0.500000 3.760834 46.866944 1.090425 0.190149
6547.899000 6547.900000 0.500000 3.765758 46.865052 1.084806 0.188245
6547.997000 6548.000000 0.500000 3.771330 46.869457 1.079105 0.186671
6548.096000 6548.100000 0.500000 3.776894 46.868465 1.072952 0.184940
6548.197000 6548.200000 0.500000 3.783652 46.863240 1.065773 0.183422
6548.298000 6548.300000 0.500000 3.791111 46.861032 1.057620 0.181000
6548.396000 6548.400000 0.500000 3.799330 46.857896 1.048950 0.178907
6548.500000 6548.500000 0.500000 3.808182 46.858513 1.039500 0.176726
6548.599000 6548.600000 0.500000 3.817366 46.852826 1.030090 0.174166
6548.699000 6548.700000 0.500000 3.827162 46.857946 1.020109 0.171961
6548.802000 6548.800000 0.500000 3.838277 46.853645 1.008517 0.169209
6548.903000 6548.900000 0.500000 3.848840 46.850378 0.997827 0.167127
6548.998000 6549.000000 0.500000 3.859629 46.851747 0.987510 0.164553
6549.099000 6549.100000 0.500000 3.871244 46.847166 0.975863 0.162314
6549.202000 6549.200000 0.500000 3.883348 46.848702 0.964118 0.159578
6549.300000 6549.300000 0.500000 3.895614 46.841411 0.952436 0.157419
6549.401000 6549.400000 0.500000 3.908294 46.846587 0.940285 0.154638
6549.505000 6549.500000 0.500000 3.920641 46.844335 0.928690 0.152684
6549.599000 6549.600000 0.500000 3.932956 46.843283 0.917740 0.150129
6549.700000 6549.700000 0.500000 3.945639 46.843584 0.906052 0.147896
6549.807000 6549.800000 0.500000 3.958670 46.842876 0.893942 0.145138
6549.901000 6549.900000 0.500000 3.970831 46.838410 0.883483 0.143216
6550.002000 6550.000000 0.500000 3.982661 46.842363 0.872953 0.141242
6550.103000 6550.100000 0.500000 3.995217 46.841321 0.862110 0.139042
6550.202000 6550.200000 0.500000 4.006459 46.845049 0.852408 0.136863
6550.301000 6550.300000 0.500000 4.017252 46.840424 0.843298 0.134887
6550.403000 6550.400000 0.500000 4.027559 46.837114 0.834434 0.133140
6550.502000 6550.500000 0.500000 4.036771 46.840067 0.826985 0.131405
6550.599000 6550.600000 0.500000 4.045153 46.838288 0.820043 0.130101
6550.699000 6550.700000 0.500000 4.051677 46.839192 0.814721 0.128804
6550.802000 6550.800000 0.500000 4.057804 46.838350 0.809690 0.127556
6550.897000 6550.900000 0.500000 4.062091 46.835632 0.806289 0.126597
6550.998000 6551.000000 0.500000 4.064424 46.831844 0.804238 0.125956
6551.103000 6551.100000 0.500000 4.065277 46.832006 0.803556 0.125706
6551.197000 6551.200000 0.500000 4.064788 46.827965 0.803881 0.125545
6551.296000 6551.300000 0.500000 4.062447 46.826656 0.805718 0.125387
6551.399000 6551.400000 0.500000 4.057676 46.831409 0.809696 0.125487
6551.495000 6551.500000 0.500000 4.052098 46.828918 0.814021 0.126131
6551.596000 6551.600000 0.500000 4.045308 46.827305 0.819647 0.126386
6551.701000 6551.700000 0.500000 4.036610 46.826356 0.826878 0.127354
6551.798000 6551.800000 0.500000 4.028296 46.826079 0.833752 0.127782
6551.898000 6551.900000 0.500000 4.018521 46.823723 0.841989 0.128616
6551.997000 6552.000000 0.500000 4.008164 46.826011 0.850681 0.130013
6552.098000 6552.100000 0.500000 3.998106 46.824887 0.859169 0.130682
6552.198000 6552.200000 0.500000 3.988932 46.821579 0.867224 0.131810
6552.301000 6552.300000 0.500000 3.979725 46.818862 0.875284 0.132320
6552.402000 6552.400000 0.500000 3.971192 46.849266 0.883312 0.133487
6552.501000 6552.500000 0.500000 3.963127 46.847077 0.890326 0.134275
6552.601000 6552.600000 0.500000 3.956414 46.848953 0.896261 0.134628
6552.704000 6552.700000 0.500000 3.949641 46.846861 0.902386 0.135444
6552.797000 6552.800000 0.500000 3.943664 46.848985 0.907658 0.135923
6552.900000 6552.900000 0.500000 3.938380 46.854922 0.912713 0.136174
6553.005000 6553.000000 0.500000 3.933164 46.852605 0.917564 0.137022
6553.103000 6553.100000 0.500000 3.928857 46.846655 0.921327 0.137397
6553.202000 6553.200000 0.500000 3.925077 46.847226 0.924790 0.137597
6553.303000 6553.300000 0.500000 3.921765 46.849739 0.927898 0.137817
6553.401000 6553.400000 0.500000 3.919506 46.849361 0.929993 0.137751
6553.499000 6553.500000 0.500000 3.917070 46.850090 0.932252 0.138220
6553.605000 6553.600000 0.500000 3.916043 46.853901 0.933334 0.138193
6553.703000 6553.700000 0.500000 3.915800 46.849633 0.933452 0.137860
6553.802000 6553.800000 0.500000 3.916814 46.851782 0.932552 0.137477
6553.902000 6553.900000 0.500000 3.918383 46.850551 0.931070 0.136632
6554.001000 6554.000000 0.500000 3.920391 46.855402 0.929344 0.136636
6554.100000 6554.100000 0.500000 3.923574 46.854090 0.926336 0.136560
6554.200000 6554.200000 0.500000 3.927542 46.850371 0.922573 0.135194
6554.303000 6554.300000 0.500000 3.931942 46.846107 0.918414 0.134967
6554.399000 6554.400000 0.500000 3.936963 46.846410 0.913814 0.133649
6554.496000 6554.500000 0.500000 3.942554 46.850469 0.908879 0.133053
6554.599000 6554.600000 0.500000 3.948530 46.851725 0.903429 0.132578
6554.699000 6554.700000 0.500000 3.954570 46.848676 0.897911 0.131747
6554.796000 6554.800000 0.500000 3.960627 46.842371 0.892442 0.130417
6554.900000 6554.900000 0.500000 3.966269 46.847910 0.887487 0.130028
6554.997000 6555.000000 0.500000 3.971038 46.850084 0.883258 0.129376
6555.097000 6555.100000 0.500000 3.976625 46.852489 0.878494 0.128831
6555.198000 6555.200000 0.500000 3.980824 46.849840 0.874724 0.128164
6555.296000 6555.300000 0.500000 3.983459 46.847664 0.872365 0.128234
6555.397000 6555.400000 0.500000 3.986251 46.847841 0.869929 0.127570
6555.500000 6555.500000 0.500000 3.987257 46.851710 0.869111 0.127487
6555.599000 6555.600000 0.500000 3.987762 46.847736 0.868638 0.127650
6555.699000 6555.700000 0.500000 3.986503 46.850037 0.869745 0.128093
6555.800000 6555.800000 0.500000 3.984194 46.851345 0.871764 0.128959
6555.901000 6555.900000 0.500000 3.981889 46.847500 0.873742 0.128882
6555.997000 6556.000000 0.500000 3.977820 46.842771 0.877139 0.129457
6556.100000 6556.100000 0.500000 3.972509 46.847072 0.881899 0.130754
6556.203000 6556.200000 0.500000 3.967444 46.846918 0.886550 0.131279
6556.301000 6556.300000 0.500000 3.960594 46.847358 0.892531 0.132665
6556.401000 6556.400000 0.500000 3.953293 46.843633 0.898875 0.133902
6556.506000 6556.500000 0.500000 3.945892 46.843741 0.905922 0.135035
6556.601000 6556.600000 0.500000 3.938018 46.841028 0.912839 0.136265
6556.703000 6556.700000 0.500000 3.929695 46.844165 0.920530 0.137709
6556.804000 6556.800000 0.500000 3.920959 46.843189 0.928674 0.138948
6556.902000 6556.900000 0.500000 3.911910 46.843764 0.936988 0.140372
6557.003000 6557.000000 0.500000 3.902587 46.840667 0.945701 0.141870
6557.104000 6557.100000 0.500000 3.893402 46.837768 0.954338 0.143750
6557.200000 6557.200000 0.500000 3.885029 46.836702 0.962372 0.144906
6557.302000 6557.300000 0.500000 3.876137 46.836306 0.970933 0.146342
6557.405000 6557.400000 0.500000 3.867445 46.841087 0.979583 0.148105
6557.501000 6557.500000 0.500000 3.859588 46.836500 0.987165 0.149507
6557.600000 6557.600000 0.500000 3.851259 46.842039 0.995536 0.151089
6557.701000 6557.700000 0.500000 3.843123 46.837712 1.003605 0.152546
6557.801000 6557.800000 0.500000 3.835360 46.839589 1.011491 0.154168
6557.897000 6557.900000 0.500000 3.828407 46.837591 1.018353 0.155167
6557.998000 6558.000000 0.500000 3.820957 46.834780 1.025820 0.156430
6558.100000 6558.100000 0.500000 3.813845 46.839910 1.033539 0.157743
6558.199000 6558.200000 0.500000 3.807107 46.857219 1.040833 0.158795
6558.297000 6558.300000 0.500000 3.800019 46.858218 1.048051 0.160261
6558.400000 6558.400000 0.500000 3.793047 46.874948 1.055998 0.161440
6558.496000 6558.500000 0.500000 3.786674 46.876493 1.062688 0.162975
6558.597000 6558.600000 0.500000 3.780076 46.875979 1.069621 0.164154
6558.697000 6558.700000 0.500000 3.773731 46.875919 1.076608 0.165301
6558.798000 6558.800000 0.500000 3.767655 46.891051 1.083531 0.166290
6558.896000 6558.900000 0.500000 3.762068 46.931213 1.090318 0.167699
6558.999000 6559.000000 0.500000 3.756281 46.932426 1.096936 0.168733
6559.097000 6559.100000 0.500000 3.750874 46.930067 1.102685 0.169750
6559.195000 6559.200000 0.500000 3.745718 46.928471 1.108233 0.170627
6559.300000 6559.300000 0.500000 3.741124 46.924736 1.113410 0.171741
6559.401000 6559.400000 0.500000 3.736759 46.923924 1.118333 0.172577
6559.499000 6559.500000 0.500000 3.732598 46.925463 1.122788 0.173557
6559.600000 6559.600000 0.500000 3.728967 46.919055 1.126860 0.173776
6559.700000 6559.700000 0.500000 3.725220 46.916163 1.131047 0.174536
6559.798000 6559.800000 0.500000 3.721882 46.918096 1.134716 0.175113
6559.901000 6559.900000 0.500000 3.719360 46.910152 1.137526 0.176044
6560.002000 6560.000000 0.500000 3.716387 46.903041 1.140811 0.176059
6560.102000 6560.100000 0.500000 3.713551 46.899534 1.143968 0.177014
6560.203000 6560.200000 0.500000 3.711117 46.887953 1.146438 0.176816
6560.303000 6560.300000 0.500000 3.708622 46.873706 1.148955 0.177629
6560.399000 6560.400000 0.500000 3.706920 46.857786 1.150466 0.177910
6560.500000 6560.500000 0.500000 3.704614 46.843875 1.152826 0.178391
6560.604000 6560.600000 0.500000 3.702900 46.829399 1.154481 0.178856
6560.702000 6560.700000 0.500000 3.700955 46.822559 1.156538 0.179028
6560.801000 6560.800000 0.500000 3.699347 46.810996 1.158085 0.179062
6560.901000 6560.900000 0.500000 3.698087 46.806012 1.159418 0.179144
6560.997000 6561.000000 0.500000 3.696580 46.817167 1.161444 0.179675
6561.100000 6561.100000 0.500000 3.695352 46.836002 1.163325 0.179916
6561.200000 6561.200000 0.500000 3.694776 46.859955 1.164619 0.180016
6561.296000 6561.300000 0.500000 3.693455 46.884554 1.166737 0.180336
6561.401000 6561.400000 0.500000 3.692700 46.895797 1.167922 0.180402
6561.497000 6561.500000 0.500000 3.691905 46.903029 1.169024 0.180386
6561.600000 6561.600000 0.500000 3.690766 46.909341 1.170505 0.180794
6561.696000 6561.700000 0.500000 3.690371 46.916343 1.171144 0.181065
6561.798000 6561.800000 0.500000 3.689918 46.920446 1.171791 0.181224
6561.895000 6561.900000 0.500000 3.689608 46.918576 1.172111 0.181167
6561.999000 6562.000000 0.500000 3.689195 46.915791 1.172520 0.180991
6562.097000 6562.100000 0.500000 3.688561 46.921509 1.173390 0.181201
6562.198000 6562.200000 0.500000 3.688263 46.919528 1.173698 0.181138
6562.300000 6562.300000 0.500000 3.688011 46.917858 1.173964 0.180951
6562.401000 6562.400000 0.500000 3.687622 46.920530 1.174487 0.180905
6562.503000 6562.500000 0.500000 3.687787 46.919065 1.174253 0.181191
6562.600000 6562.600000 0.500000 3.687544 46.917994 1.174517 0.180800
6562.702000 6562.700000 0.500000 3.687210 46.916303 1.174866 0.180908
6562.803000 6562.800000 0.500000 3.687249 46.916778 1.174840 0.180846
6562.901000 6562.900000 0.500000 3.686853 46.918128 1.175324 0.180593
6563.005000 6563.000000 0.500000 3.687198 46.920572 1.174989 0.181072
6563.099000 6563.100000 0.500000 3.687208 46.916478 1.174878 0.180743
6563.206000 6563.200000 0.500000 3.687399 46.918034 1.174670 0.180885
6563.302000 6563.300000 0.500000 3.687452 46.917586 1.174603 0.180776
6563.400000 6563.400000 0.500000 3.688165 46.918640 1.173801 0.180359
6563.501000 6563.500000 0.500000 3.688382 46.919169 1.173561 0.180369
6563.598000 6563.600000 0.500000 3.688779 46.922005 1.173167 0.180616
6563.701000 6563.700000 0.500000 3.689141 46.921765 1.172735 0.180223
6563.797000 6563.800000 0.500000 3.689730 46.920188 1.172013 0.179915
6563.899000 6563.900000 0.500000 3.690586 46.916051 1.170912 0.179549
6564.000000 6564.000000 0.500000 3.691171 46.915352 1.170206 0.179305
6564.094000 6564.100000 0.500000 3.691513 46.916592 1.169839 0.179823
6564.198000 6564.200000 0.500000 3.691602 46.915595 1.169706 0.179774
6564.297000 6564.300000 0.500000 3.692299 46.917164 1.168960 0.179979
6564.397000 6564.400000 0.500000 3.693401 46.915484 1.167630 0.179015
6564.501000 6564.500000 0.500000 3.693556 46.917442 1.167458 0.179462
6564.595000 6564.600000 0.500000 3.694161 46.915322 1.166738 0.179048
6564.698000 6564.700000 0.500000 3.694944 46.920102 1.165911 0.178750
6564.802000 6564.800000 0.500000 3.695617 46.917558 1.165046 0.179126
6564.900000 6564.900000 0.500000 3.696233 46.918432 1.164376 0.178479
6565.001000 6565.000000 0.500000 3.696501 46.917197 1.164020 0.178880
6565.101000 6565.100000 0.500000 3.697031 46.921584 1.163513 0.178858
6565.199000 6565.200000 0.500000 3.697650 46.916307 1.162666 0.178476
6565.302000 6565.300000 0.500000 3.698113 46.919937 1.162208 0.178106
6565.402000 6565.400000 0.500000 3.698999 46.921120 1.161193 0.178038
6565.500000 6565.500000 0.500000 3.699687 46.990793 1.162155 0.178569
6565.605000 6565.600000 0.500000 3.700188 46.990880 1.161524 0.178031
6565.700000 6565.700000 0.500000 3.700857 46.990118 1.160763 0.178076
6565.799000 6565.800000 0.500000 3.701771 46.989192 1.159679 0.177348
6565.905000 6565.900000 0.500000 3.702302 46.989167 1.159033 0.177650
6566.001000 6566.000000 0.500000 3.703294 46.990322 1.157945 0.177364
6566.102000 6566.100000 0.500000 3.704122 46.984680 1.156844 0.177495
6566.202000 6566.200000 0.500000 3.704952 46.988829 1.155980 0.177057
6566.298000 6566.300000 0.500000 3.705898 46.990599 1.154953 0.176880
6566.402000 6566.400000 0.500000 3.706279 46.993071 1.154535 0.177512
6566.498000 6566.500000 0.500000 3.707727 46.989689 1.152818 0.177006
6566.598000 6566.600000 0.500000 3.708345 46.984210 1.151975 0.176762
6566.701000 6566.700000 0.500000 3.709058 46.987744 1.151233 0.176330
6566.796000 6566.800000 0.500000 3.709822 46.988247 1.150397 0.176237
6566.899000 6566.900000 0.500000 3.710820 46.985621 1.149157 0.176421
6566.999000 6567.000000 0.500000 3.711194 46.983831 1.148671 0.176195
6567.099000 6567.100000 0.500000 3.712667 46.979255 1.146899 0.175920
6567.199000 6567.200000 0.500000 3.712902 46.973266 1.146461 0.175844
6567.300000 6567.300000 0.500000 3.714066 46.979468 1.145274 0.175947
6567.398000 6567.400000 0.500000 3.715128 46.983376 1.144169 0.175544
6567.500000 6567.500000 0.500000 3.715413 46.985098 1.143836 0.175675
6567.598000 6567.600000 0.500000 3.716353 46.981509 1.142741 0.175142
6567.698000 6567.700000 0.500000 3.717386 46.974209 1.141373 0.174881
6567.801000 6567.800000 0.500000 3.717524 46.974739 1.141198 0.175423
6567.899000 6567.900000 0.500000 3.718535 46.976368 1.140129 0.174726
6568.001000 6568.000000 0.500000 3.719129 46.980585 1.139495 0.174998
6568.103000 6568.100000 0.500000 3.720056 46.977633 1.138385 0.174803
6568.201000 6568.200000 0.500000 3.720517 46.977036 1.137858 0.174634
6568.302000 6568.300000 0.500000 3.720602 46.975882 1.137726 0.174895
6568.406000 6568.400000 0.500000 3.720839 46.973319 1.137399 0.174770
6568.500000 6568.500000 0.500000 3.721401 46.976783 1.136840 0.174293
6568.604000 6568.600000 0.500000 3.721504 46.976870 1.136724 0.175142
6568.706000 6568.700000 0.500000 3.721799 46.975464 1.136367 0.174895
6568.802000 6568.800000 0.500000 3.722140 46.966418 1.135770 0.174699
6568.905000 6568.900000 0.500000 3.721725 47.578963 1.151035 0.177118
6569.003000 6569.000000 0.700000 3.721480 65.527542 1.585673 0.243830
6570.092000 6570.080000 0.710000 3.712675 66.709328 1.628507 0.250641
6571.216000 6571.180000 0.730000 3.691880 68.596092 1.710444 0.264246
6572.283000 6572.290000 0.740000 3.666342 69.522102 1.777401 0.274069
6573.429000 6573.430000 0.750000 3.639353 70.482915 1.851320 0.285226
6574.586000 6574.580000 0.760000 3.616704 71.434136 1.919409 0.294964
6575.767000 6575.760000 0.780000 3.601835 73.322660 1.999731 0.307201
6576.960000 6576.950000 0.790000 3.594296 74.282462 2.041284 0.312211
6578.169000 6578.160000 0.800000 3.593409 75.322120 2.071654 0.315936
6579.402000 6579.390000 0.810000 3.598067 76.279203 2.088188 0.317362
6580.647000 6580.640000 0.830000 3.605486 78.165657 2.124072 0.322185
6581.916000 6581.910000 0.840000 3.614417 79.119844 2.130897 0.322053
6583.211000 6583.200000 0.850000 3.624775 80.164197 2.136733 0.323039
6584.520000 6584.510000 0.860000 3.638311 81.163231 2.134279 0.321849
6585.836000 6585.830000 0.880000 3.655241 83.053640 2.147437 0.325049
6587.186000 6587.180000 0.890000 3.673431 83.854522 2.129102 0.323550
6588.549000 6588.540000 0.900000 3.688217 84.965528 2.125536 0.324637
6589.938000 6589.930000 0.910000 3.698572 85.920349 2.127310 0.327331
6591.333000 6591.330000 0.930000 3.705213 87.829695 2.160190 0.333553
6592.761000 6592.750000 0.940000 3.709574 88.791301 2.174314 0.337108
6594.197000 6594.190000 0.950000 3.715518 89.751984 2.184831 0.340658
6595.664000 6595.650000 0.960000 3.713007 90.722210 2.214003 0.346408
6597.136000 6597.130000 0.980000 3.704964 92.607914 2.278274 0.358009
6598.637000 6598.630000 0.990000 3.699418 93.557706 2.314419 0.364765
6600.146000 6600.140000 1.000000 3.694046 94.542302 2.351362 0.371335
6601.691000 6601.680000 1.010000 3.688244 95.308290 2.384240 0.377244
6603.242000 6603.240000 1.030000 3.682778 97.399126 2.449842 0.387627
6604.822000 6604.810000 1.040000 3.676759 98.392977 2.489837 0.393445
6606.402000 6606.400000 1.050000 3.672158 99.344972 2.525473 0.398363
6608.024000 6608.010000 1.060000 3.669153 100.302915 2.557533 0.403218
6609.657000 6609.650000 1.080000 3.665720 102.227697 2.615578 0.411255
6611.310000 6611.300000 1.090000 3.658647 103.196102 2.659127 0.417343
6612.978000 6612.970000 1.100000 3.648087 104.140214 2.711894 0.424954
6614.660000 6614.650000 1.110000 3.635954 105.094509 2.770107 0.434352
6616.371000 6616.360000 1.130000 3.624525 107.034167 2.853722 0.447140
6618.097000 6618.090000 1.140000 3.615954 107.996538 2.904141 0.455203
6619.841000 6619.830000 1.150000 3.609858 108.942786 2.947530 0.462157
6621.606000 6621.600000 1.160000 3.604092 109.910538 2.990875 0.470042
6623.390000 6623.380000 1.180000 3.597823 111.836370 3.062441 0.481966
6625.185000 6625.180000 1.190000 3.591978 112.797783 3.106860 0.490252
6627.007000 6627.000000 1.200000 3.587561 113.755035 3.147103 0.497655
6628.846000 6628.840000 1.210000 3.583644 114.644789 3.184173 0.505745
6630.704000 6630.700000 1.230000 3.581747 116.635806 3.245624 0.516064
6632.588000 6632.580000 1.240000 3.581322 117.597943 3.273795 0.520674
6634.481000 6634.480000 1.250000 3.580998 118.581663 3.302251 0.526294
6636.408000 6636.400000 1.260000 3.579889 119.538835 3.332594 0.532309
6638.337000 6638.330000 1.280000 3.579370 121.430648 3.387097 0.540428
6640.296000 6640.290000 1.290000 3.578817 122.391391 3.415785 0.546257
6642.266000 6642.260000 1.300000 3.578900 123.356496 3.442437 0.551175
6644.261000 6644.260000 1.310000 3.578169 124.311275 3.471612 0.556762
6646.275000 6646.270000 1.330000 3.575567 126.254999 3.535080 0.568409
6648.306000 6648.300000 1.340000 3.571731 127.239180 3.576338 0.576501
6650.354000 6650.350000 1.350000 3.566450 128.193421 3.622214 0.585508
6652.429000 6652.420000 1.360000 3.560981 129.181990 3.670193 0.594737
6654.516000 6654.510000 1.380000 3.555705 131.110579 3.744648 0.608944
6656.618000 6656.610000 1.390000 3.550694 132.058120 3.790695 0.617371
6658.746000 6658.740000 1.400000 3.546983 133.152833 3.836318 0.626418
6660.894000 6660.890000 1.410000 3.544044 134.234991 3.878876 0.633656
6663.056000 6663.050000 1.430000 3.541787 136.166526 3.943590 0.644774
6665.241000 6665.230000 1.440000 3.540184 137.105970 3.977178 0.650327
6667.442000 6667.440000 1.450000 3.538932 138.139636 4.012169 0.656499
6669.665000 6669.660000 1.460000 3.538182 139.082208 4.042583 0.661452
6671.910000 6671.900000 1.480000 3.537756 141.025297 4.100822 0.670807
6674.166000 6674.160000 1.490000 3.536389 142.024929 4.135530 0.677023
6676.449000 6676.440000 1.500000 3.535096 142.986931 4.168948 0.682214
6678.751000 6678.740000 1.510000 3.531734 143.977478 4.211978 0.690158
6681.060000 6681.050000 1.530000 3.528035 145.893860 4.283893 0.702970
6683.398000 6683.390000 1.540000 3.523227 146.845622 4.332583 0.712685
6685.752000 6685.740000 1.550000 3.518599 147.844054 4.382294 0.721465
6688.126000 6688.120000 1.560000 3.512999 148.803657 4.435506 0.732209
6690.509000 6690.510000 1.580000 3.506818 150.717991 4.520342 0.748312
6692.926000 6692.920000 1.590000 3.500349 151.664880 4.578328 0.760458
6695.354000 6695.350000 1.600000 3.493201 152.640508 4.640828 0.773423
6697.797000 6697.800000 1.610000 3.485517 153.603626 4.706084 0.786332
6700.278000 6700.270000 1.630000 3.477495 155.528493 4.803536 0.804844
6702.759000 6702.760000 1.640000 3.470403 156.498582 4.867783 0.818714
6705.265000 6705.270000 1.650000 3.464088 157.437422 4.927975 0.830262
6707.790000 6707.790000 1.660000 3.457986 158.395640 4.988384 0.842459
6710.345000 6710.340000 1.680000 3.451745 160.324115 5.080761 0.860735
6712.902000 6712.900000 1.690000 3.446414 161.454430 5.143894 0.872483
6715.484000 6715.490000 1.700000 3.441364 162.388617 5.199799 0.882882
6718.084000 6718.090000 1.710000 3.436814 163.377283 5.255364 0.893287
6720.712000 6720.710000 1.730000 3.432198 165.267237 5.340780 0.909552
6723.348000 6723.350000 1.740000 3.427796 166.192848 5.394347 0.919549
6726.002000 6726.010000 1.750000 3.423888 167.186032 5.447798 0.929755
6728.690000 6728.690000 1.760000 3.421005 168.305547 5.500150 0.939847
6731.390000 6731.390000 1.780000 3.418696 170.261653 5.576941 0.954080
6734.115000 6734.110000 1.790000 3.416844 171.187952 5.617697 0.962464
6736.839000 6736.840000 1.800000 3.414713 172.136821 5.660869 0.971673
6739.594000 6739.600000 1.810000 3.412325 173.055923 5.704670 0.980458
6742.374000 6742.370000 1.830000 3.409631 174.975291 5.783559 0.995404
6745.168000 6745.170000 1.840000 3.406064 175.878908 5.834170 1.007185
6747.978000 6747.980000 1.850000 3.401779 176.851923 5.891633 1.019245
6750.812000 6750.810000 1.860000 3.396451 177.736715 5.952757 1.032426
6753.659000 6753.660000 1.880000 3.390323 179.645891 6.053671 1.052958
6756.529000 6756.530000 1.890000 3.383913 180.552877 6.123329 1.067693
6759.418000 6759.420000 1.900000 3.377760 181.491310 6.193171 1.082914
6762.318000 6762.320000 1.910000 3.372013 182.436066 6.261295 1.096954
6765.247000 6765.250000 1.930000 3.366330 184.258896 6.359915 1.115991
6768.194000 6768.200000 1.940000 3.360660 185.211112 6.429122 1.131068
6771.156000 6771.160000 1.950000 3.355091 186.126797 6.496952 1.145780
6774.136000 6774.140000 1.960000 3.349881 187.030484 6.562620 1.161069
6777.148000 6777.150000 1.980000 3.344377 188.905842 6.665032 1.181429
6780.172000 6780.170000 1.990000 3.338937 189.790555 6.732811 1.196665
6783.211000 6783.210000 2.000000 3.333471 190.761121 6.804352 1.212560
6786.262000 6786.270000 2.010000 3.327911 191.650156 6.874102 1.228551
6789.345000 6789.350000 2.030000 3.322169 193.464069 6.979157 1.249893
6792.447000 6792.450000 2.040000 3.316786 192.898358 6.996315 1.255939
6795.558000 6795.560000 2.050000 3.311689 194.638010 7.095405 1.276680
6798.707000 6798.700000 2.060000 3.307397 196.145064 7.181178 1.294595
6801.845000 6801.850000 2.080000 3.303253 198.110429 7.283214 1.315937
6805.033000 6805.030000 2.090000 3.299215 199.095853 7.349108 1.329691
6808.217000 6808.220000 2.100000 3.294524 200.085924 7.420355 1.344502
6811.423000 6811.430000 2.110000 3.289032 188.455327 7.027542 1.275659
6814.660000 6814.660000 2.130000 3.283220 202.153766 7.582360 1.378719
6817.919000 6817.920000 2.140000 3.276892 203.624803 7.685979 1.400006
6821.182000 6821.180000 2.150000 3.270588 197.781100 7.512598 1.371301
6824.472000 6824.470000 2.160000 3.264574 204.210694 7.803599 1.427335
6827.787000 6827.780000 2.180000 3.258304 206.705279 7.948712 1.456772
6831.111000 6831.110000 2.190000 3.252211 207.704097 8.035863 1.476326
6834.448000 6834.450000 2.200000 3.246281 208.607367 8.118726 1.495944
6837.821000 6837.820000 2.210000 3.240094 209.185226 8.191799 1.512720
6841.198000 6841.200000 2.230000 3.234593 206.597508 8.135041 1.506067
6844.604000 6844.600000 2.240000 3.229370 211.738656 8.381184 1.555467
6848.034000 6848.030000 2.250000 3.224185 212.734861 8.464415 1.575185
6851.476000 6851.470000 2.260000 3.219242 213.560568 8.539363 1.593260
6854.933000 6854.930000 2.280000 3.214419 215.348984 8.652458 1.618522
6858.408000 6858.400000 2.290000 3.209650 216.321141 8.733070 1.638129
6861.905000 6861.900000 2.300000 3.204903 217.152040 8.808271 1.656267
6865.425000 6865.420000 2.310000 3.200043 217.915316 8.882349 1.674553
6868.961000 6868.960000 2.330000 3.195091 219.859316 9.006077 1.702217
6872.511000 6872.510000 2.340000 3.189641 220.720111 9.090679 1.722936
6876.093000 6876.090000 2.350000 3.184676 221.582159 9.171650 1.742341
6879.680000 6879.680000 2.360000 3.178785 222.308170 9.256046 1.762488
6883.292000 6883.290000 2.380000 3.173397 224.363399 9.392143 1.793342
6886.923000 6886.920000 2.390000 3.167598 225.283853 9.485520 1.814830
6890.571000 6890.570000 2.400000 3.161518 226.460714 9.593216 1.839363
6894.240000 6894.240000 2.410000 3.155142 227.368943 9.693272 1.862577
6897.932000 6897.930000 2.430000 3.149079 229.204279 9.830974 1.894287
6901.640000 6901.640000 2.440000 3.142739 230.081229 9.931321 1.916558
6905.365000 6905.360000 2.450000 3.136373 230.954748 10.032738 1.941147
6909.113000 6909.110000 2.460000 3.130016 231.748827 10.131438 1.965319
6912.876000 6912.870000 2.480000 3.123867 233.386528 10.265977 1.995323
6916.666000 6916.660000 2.490000 3.117708 234.164003 10.363808 2.018874
6920.462000 6920.460000 2.500000 3.111744 234.958943 10.461142 2.043205
6924.281000 6924.280000 2.510000 3.105739 235.775875 10.560736 2.067896
6928.124000 6928.120000 2.530000 3.099910 237.519741 10.701076 2.099917
6931.984000 6931.980000 2.540000 3.093910 238.335145 10.802451 2.124866
6935.867000 6935.860000 2.550000 3.087942 239.166818 10.905026 2.150955
6939.764000 6939.760000 2.560000 3.082089 239.996425 11.007056 2.176772
6943.687000 6943.680000 2.580000 3.076589 241.742137 11.148299 2.209827
6947.614000 6947.610000 2.590000 3.071135 242.545069 11.246462 2.235542
6951.574000 6951.570000 2.600000 3.065380 243.303952 11.346770 2.260360
6955.543000 6955.540000 2.610000 3.059713 244.126111 11.449830 2.287000
6959.540000 6959.540000 2.630000 3.053842 245.869958 11.599458 2.323008
6963.549000 6963.550000 2.640000 3.048098 246.677439 11.704599 2.350930
6967.584000 6967.580000 2.650000 3.042017 247.477748 11.814251 2.379189
6971.634000 6971.630000 2.660000 3.035960 248.239708 11.922622 2.406631
6975.706000 6975.700000 2.680000 3.029977 249.993214 12.078942 2.445188
6979.788000 6979.790000 2.690000 3.023768 250.826010 12.194542 2.474128
6983.902000 6983.900000 2.700000 3.017564 251.702938 12.313371 2.506052
6988.022000 6988.020000 2.710000 3.011312 252.687332 12.439071 2.537533
6992.171000 6992.170000 2.730000 3.005077 254.366937 12.600057 2.576187
6996.332000 6996.330000 2.740000 2.998885 255.178032 12.718745 2.607561
7000.519000 7000.520000 2.750000 2.992852 255.923662 12.833063 2.637562
7004.719000 7004.720000 2.760000 2.986829 256.661907 12.947790 2.667969
7008.939000 7008.940000 2.780000 2.980610 258.291329 13.111285 2.707918
7013.185000 7013.180000 2.790000 2.974467 259.054080 13.231113 2.740142
7017.441000 7017.440000 2.800000 2.968300 259.776753 13.350108 2.771312
7021.723000 7021.720000 2.810000 2.961966 260.480860 13.471315 2.803736
7026.023000 7026.020000 2.830000 2.955992 262.038703 13.633122 2.844130
7030.343000 7030.340000 2.840000 2.949768 262.977945 13.767404 2.879358
7034.675000 7034.670000 2.850000 2.943601 263.813663 13.896603 2.914156
7039.035000 7039.030000 2.860000 2.937597 264.550178 14.019327 2.947839
7043.406000 7043.400000 2.880000 2.931457 266.113578 14.189060 2.991232
7047.805000 7047.800000 2.890000 2.925359 266.868100 14.316315 3.025938
7052.210000 7052.210000 2.900000 2.919089 267.574297 14.444442 3.060657
7056.642000 7056.640000 2.910000 2.912827 268.220916 14.570307 3.094938
7061.088000 7061.090000 2.930000 2.906612 269.366873 14.723728 3.136696
7065.557000 7065.560000 2.940000 2.900015 270.980793 14.909929 3.184744
7070.046000 7070.050000 2.950000 2.893935 269.863682 14.939007 3.199382
7074.561000 7074.560000 2.960000 2.887553 270.121046 15.049051 3.232095
7079.082000 7079.080000 2.980000 2.881167 273.985120 15.362143 3.306960
7083.634000 7083.630000 2.990000 2.874805 274.653037 15.497946 3.344952
7088.196000 7088.190000 3.000000 2.868501 275.594225 15.649467 3.387841
7092.784000 7092.780000 3.010000 2.862299 276.382657 15.791868 3.426452
7097.383000 7097.380000 3.030000 2.856250 278.034705 15.982572 3.477838
7101.998000 7102.000000 3.040000 2.850563 278.845152 16.120518 3.517174
7106.639000 7106.640000 3.050000 2.845511 279.603126 16.246193 3.554000
7111.301000 7111.300000 3.060000 2.845094 279.904055 16.270505 3.567102
7115.982000 7115.980000 3.080000 2.844233 281.210502 16.360537 3.592957
7120.683000 7120.680000 3.090000 2.990043 280.698624 14.115674 3.105455
7125.403000 7125.400000 3.100000 3.185437 276.458044 11.434587 2.517441
7130.134000 7130.130000 3.110000 3.144569 270.535476 11.656606 2.570455
7134.893000 7134.890000 3.130000 3.021895 271.994397 13.248624 2.931193
7139.661000 7139.660000 3.140000 3.013713 275.164336 13.512998 2.997474
7144.459000 7144.460000 3.150000 3.016066 276.902644 13.566514 3.017824
7149.266000 7149.270000 3.160000 2.966539 278.921530 14.358669 3.202656
7154.100000 7154.100000 3.180000 2.953987 281.654317 14.683006 3.284230
7158.951000 7158.950000 3.190000 2.970489 282.587064 14.490656 3.248884
7163.826000 7163.820000 3.200000 2.995564 283.338261 14.169313 3.186220
7168.713000 7168.710000 3.210000 3.000821 283.422386 14.099234 3.178999
7173.622000 7173.620000 3.230000 2.998554 284.625385 14.191196 3.207480
7178.542000 7178.540000 3.240000 2.983909 284.995154 14.419203 3.269672
7183.487000 7183.490000 3.250000 2.973666 285.633017 14.600211 3.318219
7188.452000 7188.450000 3.260000 2.959461 286.087435 14.832831 3.381613
7193.446000 7193.440000 3.280000 2.944278 287.869232 15.153575 3.463632
7198.446000 7198.440000 3.290000 2.932931 288.619481 15.366384 3.521970
7203.461000 7203.460000 3.300000 2.924005 289.743887 15.564414 3.576501
7208.501000 7208.500000 3.310000 2.919751 290.703779 15.682645 3.613313
7213.560000 7213.560000 3.330000 2.915974 292.729728 15.851685 3.662560
7218.646000 7218.640000 3.340000 2.913216 293.419532 15.933024 3.691505
7223.746000 7223.740000 3.350000 2.906613 293.786280 16.058672 3.730885
7228.867000 7228.860000 3.360000 2.896763 295.084568 16.289219 3.794335
7233.995000 7233.990000 3.380000 2.888571 296.518680 16.502994 3.854758
7239.151000 7239.150000 3.390000 2.884029 297.105025 16.610872 3.890781
7244.321000 7244.320000 3.400000 2.881280 298.300673 16.723664 3.928866
7249.524000 7249.520000 3.410000 2.878266 298.487119 16.784678 3.953590
7254.734000 7254.730000 3.430000 2.873050 297.540265 16.818892 3.971430
7259.966000 7259.960000 3.440000 2.866373 300.351210 17.091571 4.046272
7265.210000 7265.210000 3.450000 2.858172 300.535267 17.242736 4.093873
7270.477000 7270.480000 3.460000 2.848483 303.253542 17.568117 4.183029
7275.771000 7275.770000 3.480000 2.837810 305.146536 17.867598 4.265798
7281.083000 7281.080000 3.490000 2.828207 300.235991 17.749615 4.248657
