# XDI/1.0 BlueSky/1.10.0 BMM/2023-1.0-py310-tiled
# Beamline.name: BMM (06BM) -- Beamline for Materials Measurement (NIST)
# Beamline.xray_source: NSLS-II three-pole wiggler
# Beamline.collimation: paraboloid mirror, 5 nm Rh on 30 nm Pt
# Beamline.focusing: not in use
# Beamline.harmonic_rejection: flat mirror, Pt stripe, pitch = 7.0 mrad relative to beam
# Beamline.software: Bluesky 1.10.0, Ophyd 1.7.0, DataBroker 2.0.0b13, Python 3.10.8, 2023-1.0-py310-tiled
# Detector.I0: 10 cm N2
# Detector.I1: 25 cm N2
# Detector.I2: 25 cm N2
# Element.symbol: Zr
# Element.edge: K
# Element.reference: Zr
# Element.reference_material: Zr foil
# Facility.name: NSLS-II
# Facility.energy: 3.0
# Facility.current: 400.8
# Facility.mode: top-off
# Facility.GUP: 301027
# Facility.SAF: 310583
# Facility.cycle: 2023-2
# Mono.name: Si(111)
# Mono.d_spacing: 3.1351860
# Mono.encoder_resolution: 0.0000050 deg/ct
# Mono.angle_offset: 16.0754326 deg
# Mono.scan_mode: pseudo channel cut
# Mono.scan_type: step
# Mono.direction: forward in energy
# Sample.name: K2Zr(SiO3O9)
# Sample.prep: powder in PEG pellet
# Sample.x: 117.785 mm
# Sample.y: 114.695 mm
# Sample.SDD_position: 205.000 mm
# Scan.experimenters: Bruce Ravel
# Scan.edge_energy: 17997.6
# Scan.start_time: 2023-06-23T19:40:16
# Scan.end_time: 2023-06-23T19:48:03
# Scan.transient_id: 84979
# Scan.uid: 2693b3e3-e96e-4364-b114-9675476b0801
# Scan.plot_hint: ln(I0/It)  --  ln($5/$6)
# Column.1: energy eV
# Column.2: requested_energy eV
# Column.3: measurement_time seconds
# Column.4: xmu 
# Column.5: I0 nA
# Column.6: It nA
# Column.7: Ir nA
# ///////////
# sample courtesy Martin Stennett, University of Sheffield
# -----------
# energy  requested_energy  measurement_time  xmu  I0  It  Ir
  17797.358  17797.600  0.500  -0.051640  13.486398  14.201136  10.689526
  17807.645  17807.600  0.500  -0.052403  13.437030  14.159943  10.664592
  17817.637  17817.600  0.500  -0.053479  13.390794  14.126413  10.643785
  17827.655  17827.600  0.500  -0.054076  13.354901  14.096958  10.628510
  17837.697  17837.600  0.500  -0.055017  13.310876  14.063719  10.602503
  17847.654  17847.600  0.500  -0.055942  13.265765  14.029031  10.580855
  17857.677  17857.600  0.500  -0.056790  13.224287  13.997033  10.555941
  17867.698  17867.600  0.500  -0.057547  13.188152  13.969348  10.539256
  17877.716  17877.600  0.500  -0.058169  13.150616  13.938258  10.519224
  17887.703  17887.600  0.500  -0.058734  13.101374  13.893916  10.487792
  17897.688  17897.600  0.500  -0.059604  13.082648  13.886135  10.478218
  17907.698  17907.600  0.500  -0.060003  13.042435  13.848975  10.453090
  17917.705  17917.600  0.500  -0.060526  12.994346  13.805135  10.415178
  17927.709  17927.600  0.500  -0.061238  12.947973  13.765661  10.383672
  17937.654  17937.600  0.500  -0.061179  12.919391  13.734463  10.351391
  17947.666  17947.600  0.500  -0.061171  12.876960  13.689249  10.303967
  17957.605  17957.600  0.500  -0.060893  12.836772  13.642729  10.248772
  17967.739  17967.600  0.500  -0.059164  12.761503  13.539311  10.136142
  17969.439  17969.600  0.500  -0.058961  12.728203  13.501234  10.099297
  17971.748  17971.600  0.500  -0.058204  12.769186  13.534459  10.110459
  17973.505  17973.600  0.500  -0.057801  12.781279  13.541813  10.103835
  17975.531  17975.600  0.500  -0.057421  12.774533  13.529530  10.077048
  17977.559  17977.600  0.500  -0.056639  12.764817  13.508665  10.044550
  17979.572  17979.600  0.500  -0.055833  12.748180  13.480199  10.001799
  17981.572  17981.600  0.500  -0.054857  12.744891  13.463571  9.961601
  17983.586  17983.600  0.500  -0.053564  12.741582  13.442687  9.913796
  17985.586  17985.600  0.500  -0.052146  12.731058  13.412540  9.850408
  17987.545  17987.600  0.500  -0.050525  12.731185  13.390961  9.779708
  17987.829  17987.900  0.500  -0.050195  12.725816  13.380893  9.765796
  17988.127  17988.200  0.500  -0.049841  12.723641  13.373874  9.749653
  17988.425  17988.500  0.500  -0.049764  12.718857  13.367810  9.732663
  17988.751  17988.800  0.500  -0.049171  12.714050  13.354842  9.714490
  17989.035  17989.100  0.500  -0.048835  12.705423  13.341297  9.693676
  17989.319  17989.400  0.500  -0.048344  12.723428  13.353637  9.693200
  17989.617  17989.700  0.500  -0.048169  12.716726  13.344264  9.672329
  17989.915  17990.000  0.500  -0.048017  12.709518  13.334681  9.653827
  17990.228  17990.300  0.500  -0.047357  12.722166  13.339149  9.643355
  17990.554  17990.600  0.500  -0.047269  12.711572  13.326861  9.616736
  17990.852  17990.900  0.500  -0.046721  12.708374  13.316205  9.593417
  17991.151  17991.200  0.500  -0.046200  12.712317  13.313400  9.573222
  17991.435  17991.500  0.500  -0.045756  12.713513  13.308748  9.555183
  17991.747  17991.800  0.500  -0.045447  12.710710  13.301706  9.531106
  17992.045  17992.100  0.500  -0.045070  12.707077  13.292885  9.504105
  17992.343  17992.400  0.500  -0.044419  12.708358  13.285575  9.481043
  17992.642  17992.700  0.500  -0.043913  12.707640  13.278100  9.451424
  17992.926  17993.000  0.500  -0.043430  12.709862  13.274016  9.421140
  17993.252  17993.300  0.500  -0.042933  12.705221  13.262568  9.384881
  17993.565  17993.600  0.500  -0.042355  12.702581  13.252154  9.347186
  17993.849  17993.900  0.500  -0.041955  12.700931  13.245131  9.311386
  17994.147  17994.200  0.500  -0.041065  12.698978  13.231318  9.267010
  17994.431  17994.500  0.500  -0.040474  12.697885  13.222355  9.224479
  17994.729  17994.800  0.500  -0.039828  12.699576  13.215578  9.177804
  17995.028  17995.100  0.500  -0.039103  12.698494  13.204876  9.125197
  17995.355  17995.400  0.500  -0.038443  12.693274  13.190749  9.055738
  17995.667  17995.700  0.500  -0.037745  12.692028  13.180247  8.985803
  17995.980  17996.000  0.500  -0.036698  12.695305  13.169849  8.912703
  17996.264  17996.300  0.500  -0.035900  12.680270  13.143755  8.823442
  17996.548  17996.600  0.500  -0.034971  12.686358  13.137867  8.737482
  17996.846  17996.900  0.500  -0.034133  12.688132  13.128686  8.641912
  17997.159  17997.200  0.500  -0.033156  12.686890  13.114593  8.523606
  17997.471  17997.500  0.500  -0.031958  12.690525  13.102643  8.388687
  17997.798  17997.800  0.500  -0.030744  12.686705  13.082809  8.241262
  17998.082  17998.100  0.500  -0.029732  12.678453  13.061073  8.079054
  17998.395  17998.400  0.500  -0.028051  12.681808  13.042587  7.899810
  17998.708  17998.700  0.500  -0.026676  12.684468  13.027398  7.723464
  17998.963  17999.000  0.500  -0.025269  12.680729  13.005244  7.546688
  17999.262  17999.300  0.500  -0.023634  12.676004  12.979153  7.352178
  17999.575  17999.600  0.500  -0.021520  12.673656  12.949355  7.142328
  17999.873  17999.900  0.500  -0.019448  12.667630  12.916405  6.931683
  18000.214  18000.200  0.500  -0.016994  12.673351  12.890564  6.728595
  18000.498  18000.500  0.500  -0.014323  12.677574  12.860463  6.540123
  18000.797  18000.800  0.500  -0.011533  12.680714  12.827813  6.373363
  18001.110  18001.100  0.500  -0.008701  12.674512  12.785276  6.222524
  18001.380  18001.400  0.500  -0.005871  12.671610  12.746219  6.089108
  18001.650  18001.700  0.500  -0.002543  12.647993  12.680201  5.968114
  18001.977  18002.000  0.500  0.001120  12.656394  12.642232  5.867633
  18002.304  18002.300  0.500  0.005087  12.651292  12.587100  5.777470
  18002.602  18002.600  0.500  0.008688  12.647101  12.537702  5.705379
  18002.915  18002.900  0.500  0.012942  12.661344  12.498539  5.642613
  18003.199  18003.200  0.500  0.017046  12.663550  12.449519  5.580888
  18003.498  18003.500  0.500  0.020823  12.660714  12.399809  5.525061
  18003.811  18003.800  0.500  0.024743  12.645648  12.336600  5.463604
  18004.095  18004.100  0.500  0.029307  12.663001  12.297273  5.407272
  18004.394  18004.400  0.500  0.033702  12.659210  12.239685  5.339825
  18004.707  18004.700  0.500  0.038254  12.636118  12.161869  5.259238
  18005.019  18005.000  0.500  0.043392  12.653838  12.116507  5.183001
  18005.318  18005.300  0.500  0.048792  12.645955  12.043744  5.086973
  18005.617  18005.600  0.500  0.054245  12.645529  11.977851  4.992942
  18005.915  18005.900  0.500  0.060484  12.653345  11.910702  4.894610
  18006.200  18006.200  0.500  0.067108  12.647588  11.826690  4.788560
  18006.513  18006.500  0.500  0.074134  12.639980  11.736819  4.670949
  18006.797  18006.800  0.500  0.081736  12.639483  11.647480  4.554686
  18007.124  18007.100  0.500  0.090717  12.640137  11.543936  4.419008
  18007.395  18007.400  0.500  0.100506  12.630334  11.422616  4.281500
  18007.722  18007.700  0.500  0.111051  12.623394  11.296587  4.139840
  18008.049  18008.000  0.500  0.122902  12.636860  11.175407  3.999390
  18008.334  18008.300  0.500  0.134492  12.637819  11.047475  3.860355
  18008.604  18008.600  0.500  0.146928  12.633076  10.906844  3.721399
  18008.888  18008.900  0.500  0.159966  12.637919  10.769686  3.588219
  18009.173  18009.200  0.500  0.174276  12.636263  10.615284  3.445283
  18009.486  18009.500  0.500  0.190336  12.630696  10.441556  3.298210
  18009.799  18009.800  0.500  0.206794  12.625843  10.267176  3.153165
  18010.112  18010.100  0.500  0.224582  12.630797  10.090115  3.013712
  18010.425  18010.400  0.500  0.243220  12.618738  9.894341  2.870032
  18010.738  18010.700  0.500  0.260962  12.622769  9.723445  2.749658
  18011.008  18011.000  0.500  0.278480  12.624105  9.555611  2.637227
  18011.293  18011.300  0.500  0.297939  12.622443  9.370225  2.521849
  18011.606  18011.600  0.500  0.316669  12.612426  9.189055  2.419730
  18011.905  18011.900  0.500  0.338152  12.612254  8.993634  2.313264
  18012.204  18012.200  0.500  0.360127  12.609601  8.796307  2.215183
  18012.489  18012.500  0.500  0.383107  12.605373  8.593583  2.122446
  18012.830  18012.800  0.500  0.408813  12.609590  8.378297  2.034430
  18013.129  18013.100  0.500  0.434963  12.608901  8.161601  1.950547
  18013.400  18013.400  0.500  0.461060  12.602205  7.947137  1.875933
  18013.670  18013.700  0.500  0.489132  12.619370  7.737674  1.806627
  18013.983  18014.000  0.500  0.521724  12.610477  7.484272  1.731176
  18014.268  18014.300  0.500  0.554969  12.608993  7.238695  1.661095
  18014.595  18014.600  0.500  0.592037  12.603481  6.972240  1.592119
  18014.908  18014.900  0.500  0.630147  12.607337  6.713578  1.528159
  18015.207  18015.200  0.500  0.667842  12.594647  6.458712  1.467998
  18015.492  18015.500  0.500  0.706261  12.606808  6.221281  1.414667
  18015.805  18015.800  0.500  0.741434  12.602545  6.004235  1.368014
  18016.047  18016.100  0.500  0.776678  12.602348  5.796217  1.325008
  18016.375  18016.400  0.500  0.808012  12.644379  5.636148  1.292829
  18016.702  18016.700  0.500  0.841883  12.646709  5.449447  1.257089
  18016.987  18017.000  0.500  0.869193  12.648739  5.303488  1.230983
  18017.286  18017.300  0.500  0.892337  12.641968  5.179379  1.209286
  18017.600  18017.600  0.500  0.912300  12.637708  5.075297  1.192755
  18017.884  18017.900  0.500  0.926350  12.632060  5.002249  1.182578
  18018.169  18018.200  0.500  0.934901  12.635858  4.961152  1.178629
  18018.483  18018.500  0.500  0.939905  12.619569  4.930025  1.177305
  18018.767  18018.800  0.500  0.940796  12.622210  4.926665  1.181075
  18019.038  18019.100  0.500  0.938780  12.637185  4.942465  1.189650
  18019.394  18019.400  0.500  0.932605  12.630487  4.970442  1.200553
  18019.707  18019.700  0.500  0.923970  12.625393  5.011525  1.213193
  18019.992  18020.000  0.500  0.913280  12.638754  5.070745  1.230670
  18020.306  18020.300  0.500  0.903299  12.624710  5.115918  1.242599
  18020.605  18020.600  0.500  0.891590  12.627198  5.177192  1.258839
  18020.890  18020.900  0.500  0.881365  12.618461  5.226781  1.271949
  18021.203  18021.200  0.500  0.871146  12.624280  5.282904  1.286247
  18021.460  18021.500  0.500  0.861898  12.626341  5.332857  1.297841
  18021.802  18021.800  0.500  0.853561  12.618193  5.374032  1.308671
  18022.087  18022.100  0.500  0.847577  12.608164  5.401989  1.315405
  18022.372  18022.400  0.500  0.842579  12.612923  5.431105  1.322148
  18022.600  18022.600  0.500  0.840631  12.613527  5.441960  1.323882
  18023.554  18023.590  0.500  0.843082  12.606579  5.425648  1.317828
  18024.609  18024.590  0.500  0.864340  12.603606  5.310270  1.284046
  18025.635  18025.610  0.500  0.895070  12.608191  5.151444  1.234590
  18026.676  18026.660  0.500  0.931839  12.597791  4.961373  1.172400
  18027.716  18027.720  0.500  0.972242  12.592154  4.762783  1.105481
  18028.828  18028.800  0.500  1.015963  12.585003  4.556446  1.037579
  18029.955  18029.900  0.500  1.066168  12.579275  4.331366  0.969367
  18031.053  18031.020  0.500  1.112835  12.579265  4.133875  0.915232
  18032.194  18032.160  0.500  1.149717  12.569201  3.980998  0.880060
  18033.335  18033.310  0.500  1.159033  12.570610  3.944525  0.878409
  18034.548  18034.490  0.500  1.131026  12.567215  4.055463  0.918800
  18035.704  18035.680  0.500  1.072714  12.558744  4.296083  0.994059
  18036.945  18036.900  0.500  0.992459  12.559462  4.655343  1.100811
  18038.159  18038.130  0.500  0.913948  12.543053  5.028987  1.211069
  18039.443  18039.380  0.500  0.845262  12.537675  5.384238  1.314269
  18040.671  18040.650  0.500  0.795392  12.520894  5.651983  1.388174
  18041.956  18041.940  0.500  0.759918  12.482518  5.838134  1.437765
  18043.241  18043.250  0.500  0.738164  12.476979  5.963883  1.469981
  18044.641  18044.580  0.500  0.725058  12.483265  6.045598  1.491594
  18045.927  18045.930  0.500  0.718499  12.505427  6.096190  1.507736
  18047.298  18047.300  0.500  0.713884  12.506759  6.125038  1.521186
  18048.656  18048.680  0.500  0.708452  12.495073  6.152647  1.534338
  18050.113  18050.090  0.500  0.701747  12.494292  6.193651  1.550146
  18051.529  18051.510  0.500  0.695120  12.494631  6.235005  1.561463
  18052.915  18052.950  0.500  0.689061  12.483520  6.267316  1.565610
  18054.445  18054.410  0.500  0.684564  12.482784  6.295195  1.561128
  18055.861  18055.890  0.500  0.681657  12.473205  6.308674  1.548613
  18057.434  18057.390  0.500  0.680375  12.468510  6.314388  1.529494
  18058.951  18058.910  0.500  0.680925  12.460445  6.306834  1.506896
  18060.467  18060.450  0.500  0.682372  12.462351  6.298680  1.487744
  18062.070  18062.010  0.500  0.685418  12.453735  6.275185  1.473335
  18063.587  18063.580  0.500  0.689615  12.440886  6.242455  1.464972
  18065.191  18065.180  0.500  0.694869  12.430919  6.204768  1.465612
  18066.823  18066.790  0.500  0.701270  12.428224  6.163838  1.473924
  18068.484  18068.430  0.500  0.707257  12.429826  6.127836  1.485119
  18070.074  18070.080  0.500  0.713723  12.426764  6.086846  1.493557
  18071.750  18071.750  0.500  0.723250  12.408126  6.020085  1.490862
  18073.441  18073.440  0.500  0.737594  12.388087  5.924767  1.474610
  18075.132  18075.150  0.500  0.755804  12.383186  5.815553  1.451103
  18076.895  18076.880  0.500  0.776325  12.387204  5.699277  1.424843
  18078.615  18078.630  0.500  0.795669  12.374863  5.584516  1.399061
  18080.379  18080.390  0.500  0.811996  12.374246  5.493808  1.380061
  18082.201  18082.180  0.500  0.822503  12.361525  5.430798  1.365990
  18083.994  18083.980  0.500  0.825997  12.352233  5.407784  1.359735
  18085.859  18085.810  0.500  0.823939  12.343237  5.414981  1.357941
  18087.682  18087.650  0.500  0.820267  12.328981  5.428624  1.353522
  18089.562  18089.510  0.500  0.816562  12.290347  5.431703  1.345336
  18091.414  18091.390  0.500  0.814800  12.255766  5.425967  1.334804
  18093.310  18093.290  0.500  0.815420  12.289822  5.437673  1.330785
  18095.234  18095.210  0.500  0.816807  12.321379  5.444082  1.328124
  18097.131  18097.150  0.500  0.817587  12.317823  5.438267  1.325466
  18099.113  18099.110  0.500  0.816122  12.300432  5.438548  1.329028
  18101.068  18101.080  0.500  0.812154  12.288386  5.454823  1.341091
  18103.081  18103.080  0.500  0.805168  12.281348  5.489917  1.362029
  18105.123  18105.090  0.500  0.795673  12.265754  5.535260  1.388357
  18107.165  18107.120  0.500  0.784592  12.253085  5.591155  1.417136
  18109.207  18109.180  0.500  0.772742  12.229843  5.647073  1.443091
  18111.265  18111.250  0.500  0.761006  12.246918  5.721716  1.471211
  18113.366  18113.340  0.500  0.748905  12.247097  5.791459  1.491564
  18115.454  18115.450  0.500  0.737668  12.232514  5.849927  1.503520
  18117.599  18117.580  0.500  0.727571  12.203492  5.895275  1.510490
  18119.716  18119.720  0.500  0.719418  12.196366  5.940064  1.515644
  18121.906  18121.890  0.500  0.713439  12.128062  5.942221  1.510196
  18124.081  18124.080  0.500  0.709284  12.140459  5.973061  1.511572
  18126.330  18126.280  0.500  0.707009  12.182911  6.007601  1.515293
  18128.535  18128.500  0.500  0.705326  12.193359  6.022879  1.514806
  18130.756  18130.750  0.500  0.705431  12.180984  6.016138  1.510294
  18133.035  18133.010  0.500  0.705961  12.166284  6.005690  1.506195
  18135.329  18135.290  0.500  0.706842  12.147565  5.991171  1.500322
  18137.594  18137.590  0.500  0.708674  12.130953  5.972025  1.495140
  18139.933  18139.910  0.500  0.711516  12.133048  5.956105  1.493118
  18142.272  18142.250  0.500  0.715851  12.129008  5.928368  1.489882
  18144.597  18144.600  0.500  0.721327  12.119543  5.891390  1.489387
  18146.966  18146.980  0.500  0.726905  12.112876  5.855401  1.491432
  18149.393  18149.370  0.500  0.730931  12.092368  5.822001  1.494568
  18151.822  18151.790  0.500  0.733453  12.051395  5.787656  1.497796
  18154.279  18154.220  0.500  0.735335  12.075692  5.788422  1.509298
  18156.694  18156.670  0.500  0.736750  12.086587  5.785453  1.517446
  18159.168  18159.150  0.500  0.738041  12.070503  5.770296  1.520085
  18161.642  18161.640  0.500  0.739052  12.060925  5.759892  1.520767
  18164.160  18164.150  0.500  0.739172  12.047855  5.752958  1.519766
  18166.679  18166.670  0.500  0.738548  12.040250  5.752919  1.518697
  18169.228  18169.220  0.500  0.737424  12.029654  5.754319  1.516594
  18171.821  18171.790  0.500  0.737498  12.019328  5.748953  1.510628
  18174.414  18174.370  0.500  0.738978  12.001050  5.731722  1.497907
  18177.009  18176.980  0.500  0.740983  11.994584  5.717161  1.486717
  18179.633  18179.600  0.500  0.741579  11.988395  5.710806  1.476839
  18182.243  18182.250  0.500  0.741099  11.960710  5.700355  1.467553
  18184.869  18184.910  0.500  0.739362  11.959526  5.709700  1.464182
  18187.611  18187.590  0.500  0.736782  11.921735  5.706359  1.460048
  18190.325  18190.290  0.500  0.733332  11.929351  5.729741  1.464859
  18193.040  18193.010  0.500  0.728967  11.921347  5.750944  1.473039
  18195.785  18195.750  0.500  0.725216  11.924113  5.773894  1.485321
  18198.517  18198.500  0.500  0.721543  11.909722  5.788144  1.497977
  18201.307  18201.280  0.500  0.718719  11.903258  5.801363  1.510414
  18204.040  18204.070  0.500  0.715722  11.891757  5.813153  1.519895
  18206.904  18206.890  0.500  0.713467  11.875606  5.818365  1.528894
  18209.726  18209.720  0.500  0.711718  11.866361  5.824011  1.537666
  18212.607  18212.570  0.500  0.709250  11.851605  5.831143  1.545964
  18215.489  18215.450  0.500  0.707369  11.843590  5.838173  1.553922
  18218.372  18218.340  0.500  0.705732  11.831385  5.841712  1.560538
  18221.299  18221.250  0.500  0.703963  11.753852  5.813707  1.559312
  18224.184  18224.170  0.500  0.702645  11.775933  5.832306  1.566686
  18227.142  18227.120  0.500  0.701454  11.784547  5.843528  1.568718
  18230.116  18230.090  0.500  0.700975  11.788949  5.848513  1.564807
  18233.091  18233.070  0.500  0.700340  11.780604  5.848084  1.558808
  18236.111  18236.080  0.500  0.699224  11.764675  5.846698  1.550934
  18239.146  18239.100  0.500  0.697819  11.751171  5.848198  1.542882
  18242.197  18242.150  0.500  0.697362  11.734476  5.842560  1.532262
  18245.249  18245.210  0.500  0.698052  11.730796  5.836697  1.522242
  18248.302  18248.290  0.500  0.698926  11.722735  5.827591  1.514560
  18251.386  18251.390  0.500  0.700149  11.693399  5.805903  1.507121
  18254.543  18254.510  0.500  0.701708  11.671986  5.786248  1.504716
  18257.687  18257.650  0.500  0.703257  11.684198  5.783336  1.510983
  18260.861  18260.800  0.500  0.705087  11.665901  5.763719  1.514530
  18264.051  18263.980  0.500  0.706334  11.655512  5.751410  1.519293
  18267.184  18267.170  0.500  0.707636  11.641778  5.737157  1.522393
  18270.420  18270.390  0.500  0.707670  11.622946  5.727687  1.525520
  18273.628  18273.620  0.500  0.707380  11.617004  5.726416  1.530432
  18276.881  18276.870  0.500  0.706319  11.585934  5.717163  1.531086
  18280.194  18280.150  0.500  0.705253  11.562454  5.711662  1.532631
  18283.479  18283.440  0.500  0.704664  11.251724  5.561440  1.496360
  18286.765  18286.750  0.500  0.703517  11.270142  5.576936  1.504817
  18290.096  18290.070  0.500  0.702854  11.529991  5.709308  1.544534
  18293.414  18293.420  0.500  0.701844  11.534312  5.717219  1.548264
  18296.821  18296.790  0.500  0.700717  11.527256  5.720166  1.549217
  18300.214  18300.170  0.500  0.699513  11.519095  5.723001  1.549097
  18303.668  18303.580  0.500  0.698511  11.499934  5.719206  1.545878
  18307.035  18307.000  0.500  0.696797  11.480934  5.719554  1.543337
  18310.476  18310.450  0.500  0.695564  11.476386  5.724340  1.542461
  18313.890  18313.910  0.500  0.693531  11.449723  5.722666  1.537950
  18317.408  18317.390  0.500  0.691734  11.441047  5.728613  1.534437
  18320.927  18320.890  0.500  0.689533  11.432757  5.737078  1.533166
  18324.462  18324.410  0.500  0.687497  11.413213  5.738942  1.531198
  18327.954  18327.950  0.500  0.685684  11.403839  5.744635  1.532579
  18331.537  18331.500  0.500  0.683516  11.396255  5.753270  1.537232
  18335.091  18335.080  0.500  0.681534  11.377310  5.755105  1.542967
  18338.705  18338.680  0.500  0.680364  11.366632  5.756435  1.551039
  18342.321  18342.290  0.500  0.679511  11.344017  5.749884  1.556024
  18345.983  18345.920  0.500  0.679188  11.289682  5.724191  1.553881
  18349.646  18349.580  0.500  0.678620  11.312730  5.739134  1.562319
  18353.281  18353.250  0.500  0.678267  11.315058  5.742342  1.567693
  18356.933  18356.940  0.500  0.677603  11.295890  5.736423  1.569287
  18360.719  18360.650  0.500  0.676286  11.281454  5.736641  1.572693
  18364.432  18364.380  0.500  0.674968  11.264051  5.735348  1.575688
  18368.191  18368.120  0.500  0.673897  11.254814  5.736786  1.576988
  18371.923  18371.890  0.500  0.672998  11.238481  5.733613  1.578108
  18375.715  18375.680  0.500  0.672650  11.228623  5.730576  1.575803
  18379.538  18379.480  0.500  0.672308  11.209063  5.722552  1.572864
  18383.378  18383.310  0.500  0.671827  11.193348  5.717274  1.569868
  18387.219  18387.150  0.500  0.671686  11.187048  5.714864  1.566974
  18391.077  18391.010  0.500  0.672048  11.156584  5.697242  1.561268
  18394.907  18394.890  0.500  0.672246  11.155185  5.695398  1.559884
  18398.798  18398.790  0.500  0.672671  11.146618  5.688607  1.556961
  18402.735  18402.710  0.500  0.672700  11.126615  5.678234  1.555028
  18406.689  18406.650  0.500  0.672409  11.095918  5.664213  1.550950
  18410.659  18410.610  0.500  0.671739  11.089578  5.664771  1.551800
  18414.631  18414.580  0.500  0.671041  11.077176  5.662387  1.552430
  18418.589  18418.580  0.500  0.670381  11.067944  5.661407  1.554472
  18422.639  18422.590  0.500  0.669477  11.094966  5.680357  1.562856
  18426.676  18426.630  0.500  0.668668  11.084336  5.679507  1.566142
  18430.729  18430.680  0.500  0.667681  11.060470  5.672877  1.568833
  18434.770  18434.750  0.500  0.666377  11.052372  5.676123  1.572916
  18438.841  18438.840  0.500  0.665738  11.023928  5.665130  1.574408
  18442.990  18442.950  0.500  0.664285  11.017412  5.670014  1.577274
  18447.140  18447.080  0.500  0.662653  10.987659  5.663939  1.576977
  18451.277  18451.230  0.500  0.661027  10.991059  5.674910  1.582323
  18455.431  18455.390  0.500  0.659389  10.973451  5.675110  1.583674
  18459.602  18459.580  0.500  0.657863  10.958651  5.676111  1.585193
  18463.775  18463.780  0.500  0.656755  10.932732  5.668964  1.583422
  18468.084  18468.010  0.500  0.655198  10.906303  5.664072  1.582062
  18472.335  18472.250  0.500  0.653941  10.904247  5.670128  1.582892
  18476.544  18476.510  0.500  0.653011  10.880784  5.663192  1.581366
  18480.784  18480.790  0.500  0.651819  10.803611  5.629730  1.571901
  18485.146  18485.090  0.500  0.650811  10.856333  5.662906  1.582552
  18489.436  18489.410  0.500  0.649863  10.833899  5.656568  1.582222
  18493.787  18493.750  0.500  0.649348  10.828398  5.656606  1.583171
  18498.140  18498.110  0.500  0.648966  10.810651  5.649494  1.582741
  18502.511  18502.490  0.500  0.648443  10.781525  5.637218  1.580281
  18506.913  18506.880  0.500  0.647902  10.779698  5.639314  1.582266
  18511.348  18511.300  0.500  0.646502  10.755929  5.634765  1.582521
  18515.785  18515.730  0.500  0.645649  10.744942  5.633811  1.584224
  18520.209  18520.180  0.500  0.644495  10.732443  5.633757  1.585258
  18524.635  18524.650  0.500  0.643923  10.715920  5.628300  1.586915
  18529.184  18529.140  0.500  0.643049  10.694358  5.621884  1.588583
  18533.690  18533.650  0.500  0.642319  10.681020  5.618974  1.591459
  18538.183  18538.180  0.500  0.641664  10.667097  5.615327  1.593249
  18542.739  18542.730  0.500  0.640755  10.635806  5.603947  1.591207
  18547.342  18547.300  0.500  0.640134  10.639063  5.609144  1.595238
  18551.932  18551.880  0.500  0.639724  10.619488  5.601124  1.594673
  18556.525  18556.490  0.500  0.638799  10.600960  5.596521  1.594511
  18561.134  18561.110  0.500  0.638195  10.582173  5.589982  1.592726
  18565.777  18565.760  0.500  0.637353  10.566809  5.586566  1.592005
  18570.498  18570.420  0.500  0.636643  10.553032  5.583245  1.591368
  18575.160  18575.100  0.500  0.635577  10.517402  5.570329  1.588856
  18579.840  18579.800  0.500  0.634513  10.503192  5.568725  1.589699
  18584.552  18584.520  0.500  0.633473  10.496520  5.570978  1.591474
  18589.313  18589.260  0.500  0.631764  10.479385  5.571399  1.593076
  18594.076  18594.010  0.500  0.630970  10.459481  5.565235  1.592274
  18598.826  18598.790  0.500  0.630066  10.436882  5.558230  1.592569
  18603.609  18603.590  0.500  0.628900  10.430688  5.561415  1.594978
  18608.440  18608.400  0.500  0.627972  10.408351  5.554654  1.594612
  18613.304  18613.230  0.500  0.626656  10.391172  5.552793  1.596466
  18618.125  18618.090  0.500  0.625087  10.380324  5.555703  1.598993
  18622.948  18622.960  0.500  0.624093  10.353591  5.546906  1.598365
  18627.865  18627.850  0.500  0.622405  10.319244  5.537847  1.597909
  18632.862  18632.760  0.500  0.621355  10.321303  5.544771  1.601836
  18637.738  18637.690  0.500  0.620136  10.285267  5.532151  1.600941
  18642.664  18642.630  0.500  0.618788  10.297275  5.546082  1.606736
  18647.622  18647.600  0.500  0.617736  10.278188  5.541624  1.607201
  18652.659  18652.590  0.500  0.616728  10.254810  5.534595  1.607705
  18657.669  18657.590  0.500  0.615612  10.238847  5.532153  1.607781
  18662.650  18662.620  0.500  0.614416  10.215395  5.526087  1.607663
  18667.665  18667.660  0.500  0.613311  10.199810  5.523756  1.609951
  18672.790  18672.720  0.500  0.612800  10.179642  5.515652  1.607495
  18677.856  18677.800  0.500  0.612136  10.164473  5.511093  1.607467
  18682.986  18682.900  0.500  0.611083  10.148949  5.508470  1.607710
  18688.074  18688.020  0.500  0.610451  10.119861  5.496159  1.605781
  18693.210  18693.160  0.500  0.609297  10.109839  5.497050  1.607353
  18698.395  18698.320  0.500  0.608424  10.094956  5.493755  1.608428
  18703.598  18703.500  0.500  0.607559  10.068873  5.484300  1.608125
  18708.727  18708.690  0.500  0.606855  10.049750  5.477740  1.607642
  18713.951  18713.910  0.500  0.605392  10.018350  5.468620  1.606495
  18719.224  18719.140  0.500  0.604640  10.013003  5.469815  1.608747
  18724.455  18724.390  0.500  0.603235  10.001745  5.471347  1.610264
  18729.765  18729.660  0.500  0.602325  9.984243  5.466746  1.610989
  18734.954  18734.950  0.500  0.601261  9.962415  5.460600  1.610530
  18740.317  18740.260  0.500  0.599878  9.940341  5.456038  1.611553
  18745.713  18745.590  0.500  0.599212  9.924838  5.451163  1.613017
  18750.974  18750.940  0.500  0.598349  9.909589  5.447485  1.613740
  18756.360  18756.310  0.500  0.597330  9.883953  5.438930  1.613206
  18761.735  18761.690  0.500  0.596223  9.856885  5.430043  1.612372
  18767.175  18767.100  0.500  0.595387  9.851408  5.431565  1.614826
  18772.586  18772.520  0.500  0.593848  9.830054  5.428141  1.615694
  18777.970  18777.970  0.500  0.592890  9.814060  5.424500  1.615820
  18783.466  18783.430  0.500  0.591784  9.792538  5.418594  1.615232
  18788.996  18788.910  0.500  0.590296  9.776938  5.418018  1.616913
  18794.482  18794.410  0.500  0.589405  9.754719  5.410528  1.616245
  18799.956  18799.930  0.500  0.588042  9.740756  5.410151  1.618915
  18805.527  18805.470  0.500  0.586746  9.710663  5.400428  1.617029
  18811.147  18811.020  0.500  0.585625  9.691995  5.396094  1.616713
  18816.631  18816.600  0.500  0.584674  9.673274  5.390795  1.616678
  18822.227  18822.200  0.500  0.583271  9.659361  5.390599  1.618196
  18827.873  18827.810  0.500  0.582245  9.640885  5.385813  1.619000
  18833.554  18833.450  0.500  0.580995  9.621005  5.381427  1.619228
  18839.191  18839.100  0.500  0.580020  9.594397  5.371777  1.618074
  18844.770  18844.770  0.500  0.578659  9.585127  5.373899  1.621825
  18850.523  18850.460  0.500  0.577570  9.574605  5.373850  1.623155
