# XDI/1.0 BlueSky/1.10.0 BMM/2023-1.0-py310-tiled
# Beamline.name: BMM (06BM) -- Beamline for Materials Measurement (NIST)
# Beamline.xray_source: NSLS-II three-pole wiggler
# Beamline.collimation: paraboloid mirror, 5 nm Rh on 30 nm Pt
# Beamline.focusing: not in use
# Beamline.harmonic_rejection: flat mirror, Si stripe, pitch = 7.0 mrad relative to beam
# Beamline.software: Bluesky 1.10.0, Ophyd 1.7.0, DataBroker 2.0.0b13, Python 3.10.8, 2023-1.0-py310-tiled
# Detector.I0: 10 cm N2
# Detector.I1: 25 cm N2
# Detector.I2: 25 cm N2
# Detector.fluorescence: SII Vortex ME4 (4-element silicon drift)
# Detector.deadtime_correction: Xspress3
# Element.symbol: Ce
# Element.edge: L3
# Element.reference: Ce
# Element.reference_material: CeO2
# Facility.name: NSLS-II
# Facility.energy: 3.0
# Facility.current: 400.2
# Facility.mode: top-off
# Facility.GUP: 123456
# Facility.SAF: 301027
# Facility.cycle: 2023-2
# Mono.name: Si(111)
# Mono.d_spacing: 3.1351860
# Mono.encoder_resolution: 0.0000050 deg/ct
# Mono.angle_offset: 16.0754326 deg
# Mono.scan_mode: pseudo channel cut
# Mono.scan_type: step
# Mono.direction: forward in energy
# Sample.name: CaCe2Ti4O12
# Sample.prep: Powder in PEG pellet
# Sample.x: 142.329 mm
# Sample.y: 114.126 mm
# Sample.SDD_position: 45.000 mm
# Scan.experimenters: Bruce Ravel
# Scan.edge_energy: 5723.4
# Scan.start_time: 2023-05-06T10:53:50
# Scan.end_time: 2023-05-06T10:59:29
# Scan.transient_id: 74743
# Scan.uid: b79e1f41-982a-4859-b714-89174d3c2845
# Scan.plot_hint: (Ce1+Ce2+Ce3+Ce4)/I0  --  ($8+$9+$10+$11)/$5
# Column.1: energy eV
# Column.2: requested_energy eV
# Column.3: measurement_time seconds
# Column.4: xmu 
# Column.5: I0 nA
# Column.6: It nA
# Column.7: Ir nA
# Column.8: Ce1 
# Column.9: Ce2 
# Column.10: Ce3 
# Column.11: Ce4 
# ///////////
# sample courtesy Martin Stennett, University of Sheffield
# -----------
# energy  requested_energy  measurement_time  xmu  I0  It  Ir  Ce1  Ce2  Ce3  Ce4
  5523.404  5523.400  0.500  159.487217  109.102643  1.293650  0.096101  4317.131787  4473.755725  4319.810654  4289.778762
  5533.410  5533.400  0.500  161.320754  109.480423  1.330789  0.100063  4361.920465  4554.825802  4363.868504  4380.849709
  5543.420  5543.400  0.500  159.597425  109.802714  1.369601  0.104632  4353.721950  4582.856859  4364.866531  4222.784976
  5553.415  5553.400  0.500  160.489742  110.134162  1.411712  0.109067  4306.759369  4563.841624  4377.901656  4426.900584
  5563.412  5563.400  0.500  163.796317  110.462074  1.451602  0.113846  4425.378146  4688.939932  4534.017643  4444.945113
  5573.416  5573.400  0.500  163.040660  110.725809  1.491908  0.118414  4382.942835  4741.950364  4505.998190  4421.917680
  5583.408  5583.400  0.500  162.515851  110.970439  1.533169  0.123394  4504.644672  4635.902111  4488.983350  4404.925288
  5593.411  5593.400  0.500  167.045690  111.142615  1.573868  0.128255  4610.772985  4944.095802  4429.996051  4581.029860
  5603.410  5603.400  0.500  166.410113  111.329054  1.617164  0.133390  4541.085586  4927.101039  4517.043064  4541.050744
  5613.407  5613.400  0.500  168.356622  111.503211  1.660441  0.139010  4604.956136  4910.109629  4719.184516  4538.053702
  5623.388  5623.400  0.500  171.212782  111.683056  1.702920  0.144337  4589.986637  5050.193552  4771.220413  4710.166093
  5633.390  5633.400  0.500  168.953545  111.751364  1.744927  0.149935  4704.383327  4893.131081  4651.153257  4632.121517
  5643.388  5643.400  0.500  169.228758  111.829948  1.789683  0.155822  4675.323106  4915.159107  4731.237290  4603.123772
  5653.395  5653.400  0.500  174.309889  111.916765  1.834782  0.161650  4721.458866  5075.203907  4895.314756  4816.221488
  5663.400  5663.400  0.500  176.802766  111.949907  1.879357  0.167775  4922.150187  5153.291153  5038.408870  4679.203092
  5673.395  5673.400  0.500  177.913926  112.026303  1.925481  0.173975  4891.004864  5132.299013  4936.391565  4971.343995
  5683.403  5683.400  0.500  180.116352  112.026211  1.968385  0.180307  4986.645097  5265.369153  5063.437925  4862.300239
  5693.394  5693.400  0.500  186.926458  111.992527  2.011653  0.186228  5205.915435  5426.477323  5202.518546  5099.455139
  5695.395  5695.400  0.500  188.265570  111.995232  2.019078  0.187334  5196.284662  5448.501407  5316.597032  5123.462983
  5697.390  5697.400  0.500  188.804966  112.022649  2.026993  0.188543  5309.868251  5448.501407  5238.569656  5153.493138
  5699.389  5699.400  0.500  191.590524  111.996567  2.033575  0.189598  5308.709236  5610.592936  5349.653301  5188.525522
  5701.389  5701.400  0.500  195.738638  112.015771  2.042065  0.190818  5382.841790  5698.645311  5404.678025  5439.649388
  5703.404  5703.400  0.500  195.969959  112.010669  2.048421  0.191832  5305.605855  5698.645311  5495.769326  5450.705738
  5705.385  5705.400  0.500  202.167714  111.969619  2.052830  0.192629  5488.417779  5989.766523  5667.805571  5490.651992
  5707.401  5707.400  0.500  208.291843  111.998497  2.057333  0.193490  5706.778880  6019.815618  5782.903314  5818.875551
  5709.398  5709.400  0.500  212.799229  111.990607  2.059937  0.194245  5860.853975  6140.854423  5904.899756  5924.906767
  5711.399  5711.400  0.500  219.633583  111.977780  2.058561  0.194529  5952.953226  6550.092462  6049.045097  6041.990340
  5713.397  5713.400  0.500  234.777859  111.967935  2.050804  0.194185  6473.656619  6838.300677  6502.352947  6473.281801
  5713.892  5713.900  0.500  240.357864  111.953741  2.048391  0.193899  6547.840144  6978.346990  6644.384492  6738.390430
  5714.389  5714.400  0.500  246.725979  111.970458  2.045062  0.193701  6761.556764  7284.521338  6858.525806  6721.417010
  5714.887  5714.900  0.500  250.630210  111.994861  2.040384  0.193319  6885.536854  7204.525895  7037.656072  6941.576831
  5715.389  5715.400  0.500  256.711261  112.003763  2.035673  0.192883  7151.613701  7464.681581  7181.754991  6954.577096
  5715.889  5715.900  0.500  265.240199  111.889200  2.026502  0.192143  7287.991343  7703.824564  7413.928095  7271.769695
  5716.389  5716.400  0.500  277.271859  111.795658  2.016951  0.191277  7650.855305  7980.938593  7595.976694  7770.019248
  5716.891  5716.900  0.500  285.027064  111.763698  2.003319  0.189893  7835.295940  8286.116543  8009.253526  7725.012575
  5717.390  5717.400  0.500  296.321231  111.703165  1.987920  0.188640  8199.046272  8286.116543  8328.465110  8286.391592
  5717.892  5717.900  0.500  315.016878  111.671749  1.970015  0.186827  8529.570585  9317.717560  8664.624106  8666.573580
  5718.391  5718.400  0.500  331.925110  111.632249  1.949457  0.184982  9121.700109  9607.917092  9224.027339  9099.901903
  5718.892  5718.900  0.500  353.203821  111.558643  1.926243  0.182705  9595.915822  10265.301772  9714.358697  9827.362806
  5719.394  5719.400  0.500  375.372817  111.948503  1.910640  0.181052  10247.013675  10868.739510  10548.920598  10357.751157
  5719.894  5719.900  0.500  395.248963  111.975536  1.887743  0.178749  10899.726873  11370.113141  11005.227875  10983.146735
  5720.393  5720.400  0.500  425.121935  111.983653  1.856993  0.175723  11667.161867  12394.833582  12002.062332  11542.649450
  5720.893  5720.900  0.500  461.357921  111.943410  1.815545  0.171749  12694.495342  13465.493210  12710.496989  12775.493166
  5721.395  5721.400  0.500  502.230750  111.963524  1.766349  0.167090  13766.265409  14531.411508  14036.537045  13897.310614
  5721.894  5721.900  0.500  563.086527  111.969478  1.702590  0.160912  15385.005190  16329.822388  15648.897172  15684.779486
  5722.394  5722.400  0.500  632.422852  111.979880  1.620550  0.153174  17390.571928  18180.209008  17809.569573  17438.284780
  5722.896  5722.900  0.500  726.419895  111.967883  1.521171  0.143707  19907.497520  20700.401958  20440.074051  20287.724175
  5723.395  5723.400  0.500  783.031721  111.964066  1.398842  0.131956  19907.497520  20700.401958  23771.557125  23291.958338
  5723.897  5723.900  0.500  973.298854  111.950065  1.261597  0.118572  26718.754806  28298.683508  27339.093534  26604.337740
  5724.398  5724.400  0.500  1128.148742  111.953889  1.120346  0.104947  31160.620551  32275.667224  31927.767514  30936.583851
  5724.896  5724.900  0.500  1280.602778  111.942264  0.986963  0.092057  35159.786711  36733.959381  36087.820521  35372.008070
  5725.394  5725.400  0.500  1380.067176  111.927890  0.882752  0.081846  35159.786711  40779.717038  39725.298183  38803.204458
  5725.899  5725.900  0.500  1503.303150  111.933914  0.809669  0.074580  41344.316180  43192.575197  42389.065577  41344.648590
  5726.396  5726.400  0.500  1537.286347  111.936963  0.778273  0.070879  42314.578230  44172.732189  43480.672046  42111.182741
  5726.893  5726.900  0.500  1536.565376  111.938356  0.783754  0.070890  42354.927026  44047.014377  43207.349797  42391.310443
  5727.397  5727.400  0.500  1479.863262  111.928433  0.820876  0.073841  40545.482609  42930.367147  41497.409157  40665.516447
  5727.899  5727.900  0.500  1401.512696  111.944971  0.878615  0.078661  38779.510510  40206.308175  39672.493833  38233.985146
  5728.402  5728.400  0.500  1306.473898  111.956252  0.950632  0.084806  35957.542194  37490.740598  36958.930496  35860.707226
  5728.895  5728.900  0.500  1217.724555  111.951330  1.026813  0.091213  33494.449449  35047.639178  34189.209629  33594.584869
  5729.397  5729.400  0.500  1132.754622  111.952119  1.101024  0.097505  31028.948803  32971.256660  31644.438208  31169.636316
  5729.899  5729.900  0.500  1055.105825  111.945760  1.173846  0.103709  29074.080172  30429.096445  29561.477049  29049.969873
  5730.401  5730.400  0.500  980.972984  111.933317  1.241877  0.109188  27017.268619  28595.865688  27329.003762  26861.421450
  5730.901  5730.900  0.500  923.129977  111.940754  1.304924  0.114632  25162.741336  26784.328911  26105.837880  25282.957213
  5731.398  5731.400  0.500  870.378714  111.926128  1.364369  0.119708  24035.451323  24843.261098  24353.832533  24185.574495
  5731.900  5731.900  0.500  814.705513  111.900014  1.418978  0.124805  22425.705304  23636.925378  22858.236249  22244.691447
  5732.405  5732.400  0.500  766.932008  111.878781  1.469318  0.129478  21445.184817  21878.502712  21493.153251  20986.577316
  5732.903  5732.900  0.500  732.530933  111.878672  1.513106  0.134004  20238.947609  20958.675011  20697.275467  20059.690274
  5733.400  5733.400  0.500  702.957073  111.881943  1.549273  0.137818  19622.111848  20319.992603  19636.330650  19069.767720
  5733.899  5733.900  0.500  679.513711  111.893922  1.578046  0.140860  18640.224544  19529.215036  19094.669347  18769.345570
  5734.399  5734.400  0.500  666.293519  111.882160  1.598831  0.143035  18342.039684  19352.115876  18690.334719  18161.867450
  5734.907  5734.900  0.500  658.801683  111.880036  1.612275  0.144263  17984.569290  18941.964692  18761.403197  18018.818575
  5735.407  5735.400  0.500  650.899448  111.864205  1.617107  0.144815  17782.884407  18808.704186  18210.017734  18010.743036
  5735.907  5735.900  0.500  652.883430  111.869119  1.617018  0.144583  18071.125648  18953.816283  18012.825902  17999.726403
  5736.403  5736.400  0.500  665.724487  111.802188  1.611955  0.144172  18312.652314  19202.190991  18505.406521  18409.204415
  5736.905  5736.900  0.500  667.094864  111.836347  1.605893  0.143138  18312.652314  19120.047542  18762.587384  18410.165470
  5737.404  5737.400  0.500  677.571751  111.845876  1.598037  0.142220  18441.001203  19760.590460  18956.695333  18625.319285
  5737.905  5737.900  0.500  694.038532  111.853079  1.591664  0.141707  19431.831905  19721.635159  19351.112349  19125.767440
  5738.405  5738.400  0.500  693.508596  111.839388  1.586871  0.141353  19097.135476  20180.850661  19394.017299  18889.573406
  5738.901  5738.900  0.500  693.453279  111.848309  1.583667  0.141182  19097.135476  20180.850661  19394.017299  18889.573406
  5739.403  5739.400  0.500  705.777216  111.843324  1.582342  0.141256  19491.705912  20456.247978  19660.455160  19328.060972
  5739.905  5739.900  0.500  704.020982  111.832315  1.581099  0.141484  19235.604242  20287.072482  19741.452849  19468.166356
  5740.405  5740.400  0.500  706.161774  111.835566  1.580762  0.142025  19409.290261  20552.326642  19705.367665  19307.016826
  5740.903  5740.900  0.500  706.569762  111.835424  1.581297  0.142827  19357.738896  20552.326642  19705.367665  19404.095859
  5741.400  5741.400  0.500  709.710916  111.833475  1.581708  0.143497  19524.194913  20578.476330  19748.575207  19518.191405
  5741.900  5741.900  0.500  709.094357  111.823975  1.581927  0.144263  19483.866220  20681.427417  19745.344433  19383.111741
  5742.400  5742.400  0.500  714.392275  111.793234  1.583437  0.145111  19699.049760  20625.380200  19989.590959  19550.201798
  5742.902  5742.900  0.500  711.451379  111.803655  1.586765  0.146107  19275.802046  20760.361369  19850.439280  19656.262116
  5743.402  5743.400  0.500  714.363945  111.800526  1.591110  0.146952  19589.100324  20531.207212  19983.676365  19762.281277
  5743.898  5743.900  0.500  711.159582  111.807857  1.594572  0.147693  19352.036631  20415.234686  19983.676365  19762.281277
  5744.399  5744.400  0.500  709.706362  111.813239  1.597488  0.148187  19398.246669  20345.240174  19986.733921  19624.346554
  5744.900  5744.900  0.500  708.690200  111.792094  1.600707  0.148952  19430.941058  20463.298586  19912.598350  19419.123479
  5745.404  5745.400  0.500  705.322122  111.756350  1.603636  0.149481  19654.975890  20318.006064  19547.285837  19303.957817
  5745.902  5745.900  0.500  707.019679  111.768529  1.605848  0.149855  19475.741470  20332.202207  19743.463104  19471.142570
  5746.400  5746.400  0.500  705.141745  111.773793  1.607506  0.150298  19247.562504  20454.201653  19837.623525  19276.979707
  5746.902  5746.900  0.500  705.199030  111.777561  1.608741  0.150666  19519.199649  20454.201653  19586.149196  19265.876865
  5747.404  5747.400  0.500  707.901023  111.755898  1.609510  0.150948  19488.335037  20344.220692  19929.467873  19350.090856
  5747.901  5747.900  0.500  709.851432  111.767380  1.609437  0.151055  19250.282938  20497.197633  19761.416556  19829.337744
  5748.401  5748.400  0.500  707.686400  111.754748  1.607714  0.151057  19250.282938  20609.378578  19761.416556  19466.237077
  5749.397  5749.390  0.500  717.892721  111.758396  1.603635  0.150899  19713.812719  20513.384471  20192.865468  19810.476608
  5750.402  5750.390  0.500  727.597586  111.728997  1.596092  0.150556  20077.287085  20999.862534  20216.919387  19999.679318
  5751.418  5751.410  0.500  745.652798  111.735142  1.586178  0.149844  20663.195968  21622.158730  20824.458981  20205.807676
  5752.477  5752.460  0.500  754.859613  111.662659  1.572477  0.148865  20595.964382  21733.377716  21239.887608  20720.401754
  5753.520  5753.520  0.500  771.463715  111.681144  1.560583  0.147867  21206.852478  22392.158372  21398.089438  21160.849666
  5754.610  5754.600  0.500  784.593379  111.656820  1.550096  0.146820  21790.453884  22421.099489  21884.551752  21509.096738
  5755.706  5755.700  0.500  796.598580  111.659340  1.543166  0.146132  21916.767538  22774.392643  22461.082178  21795.429026
  5756.825  5756.820  0.500  801.565488  111.634185  1.538737  0.145894  21809.514444  23193.894776  22422.072185  22056.628266
  5757.968  5757.960  0.500  806.586314  111.628059  1.539507  0.146266  22275.105705  23113.753178  22422.976974  22225.828722
  5759.117  5759.110  0.500  797.343184  111.591217  1.544837  0.146764  21903.169982  22907.687757  22230.016770  21935.621495
  5760.300  5760.290  0.500  795.534752  111.599087  1.555787  0.147761  21806.198507  22726.464791  22333.779416  21914.509488
  5761.486  5761.480  0.500  790.913536  111.568686  1.569094  0.148975  21511.291801  22935.702355  21917.653082  21876.536758
  5762.704  5762.700  0.500  775.530056  111.566711  1.585123  0.150679  21088.892062  22177.995652  21706.313846  21550.136318
  5763.942  5763.930  0.500  773.166383  111.539870  1.600987  0.152389  21070.656890  22126.976644  21491.108290  21550.136318
  5765.186  5765.180  0.500  760.287146  111.538953  1.617455  0.153795  21070.656890  22003.750214  21125.852570  20601.372586
  5766.462  5766.450  0.500  753.244940  111.522153  1.631798  0.155288  20787.228932  21865.516516  20707.469901  20643.282093
  5767.744  5767.740  0.500  748.021266  111.514565  1.644848  0.156421  20501.070092  21375.174947  21033.827310  20505.193733
  5769.062  5769.050  0.500  741.169213  111.504440  1.655479  0.157777  20196.743437  21338.247014  20894.589164  20214.078132
  5770.390  5770.380  0.500  733.932213  111.493871  1.665401  0.158733  19973.815113  21355.117334  20481.255504  20018.755424
  5771.737  5771.730  0.500  733.374435  111.478630  1.674200  0.160087  19879.308971  21237.094529  20551.304774  20087.868702
  5773.106  5773.100  0.500  723.813621  111.447317  1.681908  0.161073  19828.566011  20809.834898  20256.076998  19772.608534
  5774.489  5774.480  0.500  729.530300  111.424924  1.689478  0.162288  20128.429405  20863.664657  20407.182009  19888.581949
  5775.902  5775.890  0.500  726.959583  111.418848  1.696971  0.163077  19627.125784  21007.865717  20343.201627  20018.806007
  5777.322  5777.310  0.500  727.645131  111.426880  1.705764  0.164320  20014.781040  20901.744988  20151.994086  20010.706370
  5778.759  5778.750  0.500  726.445682  111.369779  1.712173  0.165378  20014.781040  20726.613758  20151.994086  20010.706370
  5780.222  5780.210  0.500  724.984529  111.365986  1.720715  0.166579  19922.949487  20805.925926  20082.927045  19926.814799
  5781.698  5781.690  0.500  720.866052  111.332102  1.727521  0.167488  19763.453019  20695.659135  20180.009505  19616.411286
  5783.197  5783.190  0.500  721.380731  111.313547  1.735171  0.168843  19655.434675  20796.640517  20106.908992  19740.463526
  5784.718  5784.710  0.500  727.855369  111.308547  1.741572  0.169743  19949.939844  20890.777990  20307.174954  19868.630414
  5786.259  5786.250  0.500  728.722653  111.259791  1.745092  0.170755  20080.765353  20970.939383  20342.223321  19683.601897
  5787.816  5787.810  0.500  730.283433  111.278290  1.747090  0.171402  20085.596677  20948.968772  20432.392105  19797.733725
  5789.391  5789.380  0.500  736.364133  111.251612  1.744413  0.171339  20099.072048  20994.064449  20756.640736  20071.919412
  5790.990  5790.980  0.500  742.704126  111.246609  1.739799  0.171381  20347.297705  21324.307544  20706.590420  20245.119490
  5792.597  5792.590  0.500  761.629269  111.217421  1.733107  0.170909  20856.118400  21796.665341  21036.906792  21016.752749
  5794.243  5794.230  0.500  767.554364  111.167019  1.724603  0.170431  21054.660818  22058.996809  21437.374390  20775.698846
  5795.891  5795.880  0.500  784.207756  111.150493  1.718354  0.169907  21301.925066  22483.326884  21829.562337  21550.264632
  5797.557  5797.550  0.500  790.629181  111.141441  1.715221  0.170329  21901.020040  22604.429218  22023.981194  21342.236263
  5799.249  5799.240  0.500  790.060816  111.082428  1.715992  0.170879  21695.157760  22511.421449  21743.669074  21811.625345
  5800.960  5800.950  0.500  790.475706  111.037139  1.721610  0.171645  21644.428796  22944.749276  21638.607970  21544.374645
  5802.692  5802.680  0.500  794.440900  111.028180  1.731776  0.173127  21708.134800  22944.749276  21992.969138  21559.473815
  5804.435  5804.430  0.500  788.671472  110.993896  1.744488  0.174654  21491.342532  22575.348415  21957.711883  21513.316447
  5806.197  5806.190  0.500  782.070794  110.959459  1.758075  0.176295  21436.940985  22300.292983  21804.770342  21236.148316
  5807.988  5807.980  0.500  780.886548  110.939914  1.770834  0.177745  21268.225107  22618.550253  21529.557300  21215.153494
  5809.792  5809.780  0.500  774.931782  110.909555  1.783659  0.179191  21169.649340  22074.130161  21577.525071  21126.034911
  5811.623  5811.610  0.500  769.967416  110.861022  1.794028  0.180761  21103.079830  22000.062893  21441.468990  20814.762910
  5813.460  5813.450  0.500  771.859484  110.818122  1.805111  0.182011  20937.571035  22166.125610  21437.392089  20994.929534
  5815.313  5815.310  0.500  766.436346  110.765008  1.815639  0.183421  20866.554499  21926.843925  21117.065483  20983.863960
  5817.198  5817.190  0.500  768.895984  110.751689  1.826291  0.185028  20843.977109  21982.073108  21388.493866  20941.985078
  5819.099  5819.090  0.500  768.534252  110.674036  1.834543  0.185931  20977.026426  21737.685981  21337.208670  21004.866234
  5821.018  5821.010  0.500  763.189842  110.647300  1.843790  0.187206  20888.134476  21695.772109  21032.168967  20828.819745
  5822.958  5822.950  0.500  764.846547  110.604500  1.851889  0.188432  20865.417346  21637.777520  21226.383332  20865.892027
  5824.921  5824.910  0.500  764.411897  110.539655  1.858301  0.189343  20810.449766  21756.643309  21177.116266  20753.617850
  5826.891  5826.880  0.500  771.420872  110.522361  1.864115  0.190316  20846.156265  22237.140157  21211.109244  20964.850492
  5828.888  5828.880  0.500  768.728308  110.455891  1.869373  0.191524  20894.503767  21945.897973  21317.355998  20752.812359
  5830.896  5830.890  0.500  773.922895  110.398013  1.873769  0.192158  21039.657707  22164.052716  21352.134968  20883.704256
  5832.929  5832.920  0.500  773.851161  110.317894  1.876740  0.193066  21073.529712  21998.969199  21476.359934  20820.771857
  5834.987  5834.980  0.500  781.052583  110.271079  1.879873  0.193728  21298.615689  22409.385163  21517.626681  20901.883749
  5837.053  5837.050  0.500  785.881080  110.178026  1.882437  0.194591  21115.629084  22652.595179  21667.545964  21151.055891
  5839.146  5839.140  0.500  791.589483  110.110362  1.885925  0.195202  21364.744901  22652.595179  21667.545964  21477.318739
  5841.254  5841.250  0.500  795.254976  110.010753  1.889096  0.196203  21574.370548  22799.853308  21862.013421  21250.361396
  5843.383  5843.380  0.500  798.652615  109.905250  1.892768  0.197057  21508.888333  22481.568486  21929.894830  21855.764058
  5845.525  5845.520  0.500  805.114778  109.840447  1.896238  0.197839  21577.156594  22990.055680  22127.181652  21739.772791
  5847.696  5847.690  0.500  810.581024  109.748092  1.900278  0.198938  21912.461538  22908.979013  22404.434818  21733.845646
  5849.881  5849.880  0.500  810.059560  109.657990  1.907315  0.200417  22008.458672  22908.979013  22180.330867  21731.734905
  5852.088  5852.080  0.500  807.239425  109.526457  1.914761  0.201334  22008.458672  22762.930068  21998.004141  21644.681072
  5854.307  5854.300  0.500  806.956413  109.423767  1.922141  0.202944  21689.481919  23005.059832  22096.102578  21509.566515
  5856.557  5856.550  0.500  808.425290  109.268576  1.931219  0.204415  21822.827329  22860.906619  22316.307127  21335.439432
  5858.817  5858.810  0.500  808.351022  109.110139  1.942266  0.205959  21734.647804  22779.914048  21902.973882  21781.756965
  5861.098  5861.090  0.500  800.990978  108.910558  1.954801  0.207764  21211.842329  22604.420736  22057.840329  21362.270860
  5863.398  5863.390  0.500  800.780450  108.719629  1.970290  0.210165  21251.750935  22314.378512  21987.927548  21506.496009
  5865.717  5865.710  0.500  793.760895  108.407390  1.980564  0.211720  21379.785774  21962.118173  21498.459046  21209.184226
  5868.054  5868.050  0.500  794.866464  107.874225  1.982544  0.212423  21274.431695  22073.044987  21334.195855  21063.931208
  5870.406  5870.400  0.500  793.061248  106.368242  1.964151  0.210862  20815.471879  21663.582299  21083.889483  20793.587261
  5872.786  5872.780  0.500  854.626308  87.170868  1.617127  0.174305  20815.471879  18331.235245  17945.631918  17406.178290
  5875.176  5875.170  0.500  794.116677  109.318011  2.033650  0.219441  21330.824719  22523.859049  21523.843206  21432.728450
  5877.594  5877.590  0.500  802.365141  109.443003  2.040674  0.220691  21522.296456  22815.023561  21974.226911  21501.703811
  5880.023  5880.020  0.500  810.848786  109.088105  2.039533  0.221241  21969.032953  22832.022372  22264.317562  21388.584834
  5882.475  5882.470  0.500  813.412592  108.807585  2.038789  0.221841  21755.110016  22728.964256  22022.278362  21999.107240
  5884.954  5884.950  0.500  821.019437  108.565913  2.041335  0.222699  22159.188318  22790.034499  22314.461423  21871.040264
  5887.446  5887.440  0.500  821.079801  108.399983  2.046873  0.223900  22069.437932  22916.050975  22405.695088  21613.852182
  5889.956  5889.950  0.500  820.742364  108.489856  2.058670  0.226180  21978.924165  22917.992175  22386.427204  21758.877495
  5892.478  5892.470  0.500  823.069664  108.264741  2.065544  0.227177  21978.924165  23272.393074  22033.159714  21824.946986
  5895.025  5895.020  0.500  825.634804  108.025542  2.073154  0.228642  21837.835982  23000.147829  22425.522609  21926.140424
  5897.595  5897.590  0.500  824.540777  107.825455  2.081736  0.230169  21998.144453  22545.727900  22296.480488  22066.131489
  5900.178  5900.170  0.500  822.226356  107.562811  2.089901  0.231696  21967.147956  22798.904516  21985.135484  21689.790210
  5902.789  5902.780  0.500  819.098460  107.297283  2.096681  0.233089  21669.258580  22586.791555  22075.267308  21555.721708
  5905.420  5905.400  0.500  820.737164  107.017030  2.104113  0.234526  21579.269743  22700.823041  22002.142465  21550.618314
  5908.061  5908.050  0.500  826.705890  106.618100  2.110812  0.235690  21771.355639  22682.691319  22192.205902  21495.558527
  5910.733  5910.710  0.500  819.118531  106.116179  2.115769  0.237007  21405.129400  22458.540187  21652.680372  21405.378735
  5913.411  5913.390  0.500  818.979803  104.951625  2.107742  0.236896  21235.614336  22228.189633  21391.442524  21098.014970
  5916.102  5916.090  0.500  884.300966  91.847580  1.859169  0.210088  21235.614336  22228.189633  18995.157408  18761.942478
  5918.823  5918.810  0.500  815.751128  106.034319  2.160983  0.244260  21170.339080  22354.309349  21618.601646  21354.365041
  5921.558  5921.550  0.500  817.886700  106.892276  2.191782  0.248396  21502.002302  22423.739223  21842.202589  21657.827041
  5924.314  5924.300  0.500  823.845552  106.248969  2.189282  0.249220  21650.914919  22603.535975  21715.770578  21562.518587
  5927.101  5927.080  0.500  824.853636  105.425257  2.181670  0.249109  21399.871810  22531.556913  21787.767305  21241.210340
  5929.893  5929.870  0.500  832.984665  104.608490  2.175376  0.249246  21485.386688  22416.582888  21874.873545  21360.424939
  5932.712  5932.690  0.500  830.859878  105.852895  2.209973  0.253756  21485.386688  22703.695632  22050.115922  21709.724939
  5935.541  5935.520  0.500  836.250602  105.463084  2.209582  0.254854  21619.789912  22672.763239  22169.222372  21731.791993
  5938.391  5938.370  0.500  843.821824  104.750300  2.202740  0.254747  21889.642290  22714.893611  22125.272075  21660.781005
  5941.274  5941.250  0.500  847.427316  103.567546  2.185386  0.253546  21463.736254  22772.745646  22123.105664  21406.379990
  5944.131  5944.140  0.500  853.637378  98.058013  2.079093  0.242031  20688.656115  21564.938498  20999.467622  20452.922854
  5947.044  5947.050  0.500  853.071635  104.748745  2.233830  0.260646  21829.143278  23130.429544  22400.464386  21998.145583
  5949.969  5949.970  0.500  852.740820  104.847255  2.250128  0.262998  22078.628626  23046.287964  22295.457436  21987.160057
  5952.914  5952.920  0.500  856.388825  104.334310  2.254090  0.264474  21961.170908  23007.022666  22391.473451  21991.070018
  5955.882  5955.890  0.500  850.228122  103.905181  2.259447  0.265941  21577.798915  23007.188433  22195.373016  21562.746777
  5958.856  5958.870  0.500  851.938458  103.514921  2.266245  0.267340  21784.746512  22885.974410  21809.874360  21707.746842
  5961.883  5961.880  0.500  854.442181  103.095369  2.272237  0.269026  21665.315314  22932.960767  22054.182852  21436.572640
  5964.893  5964.900  0.500  853.088494  102.691651  2.278700  0.270784  21533.957426  22657.576517  21830.991790  21582.540010
  5967.949  5967.950  0.500  859.367225  102.300757  2.285898  0.272436  21583.186341  22775.607554  21949.668264  21605.455504
  5971.002  5971.010  0.500  856.603481  101.899825  2.294784  0.274553  21364.259555  22763.640328  21949.729218  21210.115960
  5974.081  5974.090  0.500  858.479396  101.477951  2.300168  0.276126  21470.170949  22606.555005  21518.612871  21521.391602
  5977.179  5977.190  0.500  854.273547  101.035473  2.303844  0.277425  21203.005997  22147.086041  21777.715931  21184.123917
  5980.298  5980.310  0.500  860.981398  100.535114  2.307956  0.278739  21111.659822  22374.407017  21733.592808  21339.203156
  5983.445  5983.450  0.500  859.873666  99.856460  2.306664  0.279684  21349.691498  21972.799779  21391.402386  21150.046712
  5986.596  5986.600  0.500  864.427483  98.506253  2.289737  0.278520  21102.398272  21902.645204  21385.029439  20761.439100
  5989.791  5989.780  0.500  872.174959  82.860579  1.937711  0.237096  17887.651449  18713.817522  17982.836037  17684.617431
  5992.957  5992.970  0.500  864.417726  100.726813  2.369377  0.290002  21436.563918  22418.367230  21895.825798  21319.285436
  5996.206  5996.190  0.500  863.888123  99.964627  2.364761  0.290443  21386.232415  22418.367230  21471.521805  21082.132268
  5999.418  5999.420  0.500  870.253045  99.370285  2.363372  0.291132  21351.528608  22473.291952  21713.613759  20938.858777
  6002.673  6002.670  0.500  877.729763  98.807714  2.363575  0.292124  21182.415431  22318.238894  21618.474005  21607.343416
  6005.942  6005.950  0.500  873.531931  98.322328  2.366824  0.293451  21182.415431  22318.238894  21357.225073  21029.813441
  6009.230  6009.240  0.500  880.263732  97.887670  2.371211  0.294861  21223.690681  22159.002753  21577.288629  21206.983304
  6012.542  6012.550  0.500  880.737730  97.448648  2.375090  0.296346  21137.859770  22267.023004  21237.954215  21183.864228
  6015.861  6015.870  0.500  883.624188  96.974942  2.378850  0.297905  21141.825332  22181.871836  21477.084471  20888.622597
  6019.211  6019.220  0.500  884.724807  96.540278  2.383670  0.299539  21030.346006  22050.677482  21503.072081  20827.482950
  6022.581  6022.590  0.500  884.540671  96.070366  2.388250  0.301218  21142.100787  21755.643180  21309.946304  20770.455757
  6025.959  6025.970  0.500  886.917343  95.649069  2.393141  0.303174  20882.526786  21866.651203  21284.097383  20799.543079
  6029.370  6029.380  0.500  885.421238  95.216817  2.399132  0.304977  20794.365862  21802.503570  20997.666385  20712.456298
  6032.792  6032.800  0.500  891.502748  94.775416  2.405737  0.306818  20900.783517  21851.583200  21105.799427  20634.377557
  6036.243  6036.250  0.500  893.338721  94.328555  2.410777  0.308617  20934.355439  21800.286273  21265.744643  20266.964483
  6039.696  6039.710  0.500  891.511336  93.839051  2.415682  0.310344  20686.850701  21546.291655  20902.407546  20523.028041
  6043.178  6043.190  0.500  895.451832  93.422872  2.422282  0.312267  20673.914734  21608.187396  20935.537152  20438.042506
  6046.681  6046.690  0.500  894.638022  92.957834  2.426618  0.314097  20572.390826  21497.098872  20795.269753  20298.853497
  6050.221  6050.210  0.500  901.309053  92.505631  2.430286  0.315359  20554.811161  21648.114029  20767.302999  20405.934740
  6053.742  6053.750  0.500  899.066578  92.019914  2.433553  0.317061  20480.089387  21470.047852  20584.120230  20197.771888
  6057.288  6057.300  0.500  899.324472  91.425046  2.433648  0.317992  20275.259248  21322.855058  20515.028727  20107.638545
  6060.869  6060.880  0.500  907.041896  90.862638  2.435268  0.319284  20362.733477  21322.808117  20360.915705  20369.761848
  6064.463  6064.480  0.500  906.588540  90.340750  2.437029  0.320711  20283.294641  21108.410173  20579.867781  19930.315978
  6068.084  6068.090  0.500  902.445587  89.888594  2.441461  0.322403  19989.365143  20868.261780  20351.730332  19910.207472
  6071.703  6071.720  0.500  910.948311  89.435057  2.444928  0.323924  20184.440132  21076.409339  20348.637184  19861.227116
  6075.366  6075.380  0.500  913.003166  88.961856  2.448798  0.326055  20000.073272  20704.267294  20387.663339  20130.452211
  6079.038  6079.050  0.500  914.566464  88.475783  2.455062  0.327679  19915.956517  21070.470352  20217.509376  19713.048101
  6082.727  6082.740  0.500  910.841322  87.992168  2.459132  0.329734  19758.528733  20649.065696  19954.273619  19785.034416
  6086.430  6086.450  0.500  917.177346  87.475547  2.461517  0.331412  19851.564668  20738.006359  20068.142160  19572.877030
  6090.162  6090.180  0.500  919.357034  87.003427  2.464047  0.332805  19791.874546  20957.337774  20004.343933  19233.656261
  6093.906  6093.920  0.500  924.009721  86.517255  2.466449  0.334442  19822.830718  20832.121633  19750.035058  19537.796803
  6097.678  6097.690  0.500  925.002623  86.036584  2.470918  0.336134  19802.560620  20230.595569  19943.130593  19607.779405
  6101.465  6101.480  0.500  925.772883  85.520376  2.473980  0.338016  19488.166783  20421.657343  19837.012123  19425.608711
  6105.261  6105.280  0.500  922.830874  85.007878  2.476423  0.339491  19518.586638  20235.405315  19595.641182  19098.261116
  6109.096  6109.110  0.500  930.195905  84.485065  2.480207  0.341397  19142.528809  20416.726767  19755.926337  19272.479446
  6112.934  6112.950  0.500  929.738198  83.952468  2.482845  0.342825  19190.579178  20257.493809  19469.484354  19136.259199
  6116.791  6116.810  0.500  931.394333  83.427251  2.486163  0.344236  19243.914713  20115.319628  19493.444648  18850.989733
  6120.672  6120.690  0.500  934.025809  82.878431  2.487984  0.345929  19267.071053  20065.227750  19113.262624  18965.032397
  6124.575  6124.590  0.500  930.180208  82.306443  2.489636  0.347499  18774.714042  19905.047530  19153.250452  18726.812437
  6128.492  6128.510  0.500  940.135827  81.739503  2.490434  0.348824  18893.953311  20187.331936  19383.363712  18381.585945
  6132.434  6132.450  0.500  939.124029  81.168614  2.490654  0.350197  18795.776204  19492.697568  19228.203693  18710.718086
  6136.396  6136.410  0.500  932.803310  80.567812  2.490426  0.351482  18683.120516  19231.506210  18654.714726  18584.580548
  6140.368  6140.380  0.500  938.002897  79.939605  2.488094  0.352429  18636.978743  19338.497704  18797.811637  18210.292688
  6144.360  6144.380  0.500  935.904893  79.270346  2.483670  0.353116  18200.422306  19128.337844  18570.484018  18290.260886
  6148.376  6148.390  0.500  941.613184  78.588505  2.476712  0.353401  18189.859217  19170.434205  18347.349242  18292.329385
  6152.415  6152.430  0.500  935.220056  77.805754  2.462560  0.352639  18089.235241  18732.034105  18192.308369  17751.923676
