# XDI/1.0 BlueSky/1.10.0 BMM/2023-1.0-py310-tiled
# Beamline.name: BMM (06BM) -- Beamline for Materials Measurement (NIST)
# Beamline.xray_source: NSLS-II three-pole wiggler
# Beamline.collimation: paraboloid mirror, 5 nm Rh on 30 nm Pt
# Beamline.focusing: not in use
# Beamline.harmonic_rejection: flat mirror, Si stripe, pitch = 7.0 mrad relative to beam
# Beamline.software: Bluesky 1.10.0, Ophyd 1.7.0, DataBroker 2.0.0b13, Python 3.10.8, 2023-1.0-py310-tiled
# Detector.I0: 10 cm N2
# Detector.I1: 25 cm N2
# Detector.I2: 25 cm N2
# Detector.fluorescence: SII Vortex ME4 (4-element silicon drift)
# Detector.deadtime_correction: Xspress3
# Element.symbol: Ce
# Element.edge: L3
# Element.reference: Ce
# Element.reference_material: CeO2
# Facility.name: NSLS-II
# Facility.energy: 3.0
# Facility.current: 399.5
# Facility.mode: top-off
# Facility.GUP: 123456
# Facility.SAF: 301027
# Facility.cycle: 2023-2
# Mono.name: Si(111)
# Mono.d_spacing: 3.1351860
# Mono.encoder_resolution: 0.0000050 deg/ct
# Mono.angle_offset: 16.0754326 deg
# Mono.scan_mode: pseudo channel cut
# Mono.scan_type: step
# Mono.direction: forward in energy
# Sample.name: Ce2Ti2O6
# Sample.prep: Powder in PEG pellet
# Sample.x: 142.329 mm
# Sample.y: 114.126 mm
# Sample.SDD_position: 45.000 mm
# Scan.experimenters: Bruce Ravel
# Scan.edge_energy: 5723.4
# Scan.start_time: 2023-05-06T10:41:00
# Scan.end_time: 2023-05-06T10:46:39
# Scan.transient_id: 74731
# Scan.uid: cc88a37e-e65a-4420-a81e-01732a121c20
# Scan.plot_hint: (Ce1+Ce2+Ce3+Ce4)/I0  --  ($8+$9+$10+$11)/$5
# Column.1: energy eV
# Column.2: requested_energy eV
# Column.3: measurement_time seconds
# Column.4: xmu 
# Column.5: I0 nA
# Column.6: It nA
# Column.7: Ir nA
# Column.8: Ce1 
# Column.9: Ce2 
# Column.10: Ce3 
# Column.11: Ce4 
# ///////////
# sample courtesy Martin Stennett, University of Sheffield
# -----------
# energy  requested_energy  measurement_time  xmu  I0  It  Ir  Ce1  Ce2  Ce3  Ce4
  5523.402  5523.400  0.500  209.301428  108.631560  1.268570  0.093352  5589.213671  5912.823225  5617.876922  5616.826816
  5533.408  5533.400  0.500  208.732076  108.949164  1.306355  0.097393  5549.611774  5847.829033  5689.909828  5653.834558
  5543.412  5543.400  0.500  212.723558  109.269343  1.345070  0.101777  5720.309906  6008.935215  5710.950428  5803.967867
  5553.414  5553.400  0.500  215.006904  109.591827  1.382883  0.105881  5892.928261  6090.012425  5817.069967  5762.988694
  5563.410  5563.400  0.500  216.852085  109.899175  1.423505  0.110495  5900.733364  6187.015706  5945.131309  5798.984745
  5573.411  5573.400  0.500  216.745398  110.102829  1.463046  0.115110  5905.938342  6323.171387  5814.099505  5821.072225
  5583.410  5583.400  0.500  219.621566  110.317313  1.501880  0.119651  5941.402612  6215.162275  6033.271248  6038.224874
  5593.407  5593.400  0.500  219.357138  110.459788  1.541601  0.124508  5957.428005  6337.249108  5950.243486  5985.222452
  5603.410  5603.400  0.500  220.501041  110.632712  1.584272  0.129731  6131.021267  6238.154167  6115.310991  5910.141692
  5613.405  5613.400  0.500  223.366644  110.772603  1.624976  0.135030  6150.867356  6472.386676  6122.373896  5997.276771
  5623.461  5623.400  0.500  225.132358  110.856807  1.665733  0.140082  6090.308107  6511.385269  6259.453663  6096.307256
  5633.388  5633.400  0.500  227.264690  111.324616  1.714171  0.145801  6245.727826  6547.450998  6174.463266  6332.512179
  5643.388  5643.400  0.500  229.603051  111.408296  1.757648  0.151837  6164.984610  6789.630755  6251.496940  6373.572237
  5653.394  5653.400  0.500  229.657475  111.462244  1.800825  0.157595  6277.377976  6727.629556  6279.565704  6313.564174
  5663.399  5663.400  0.500  231.991749  111.484326  1.844287  0.163213  6289.582470  6866.681056  6347.610689  6359.569636
  5673.397  5673.400  0.500  236.126279  111.534098  1.888513  0.169233  6362.915479  6806.664368  6565.799146  6600.752703
  5683.400  5683.400  0.500  240.244736  111.528264  1.932238  0.175443  6709.646071  6895.792686  6658.872478  6529.767196
  5693.394  5693.400  0.500  243.242895  111.488365  1.975124  0.181491  6649.027288  6962.847495  6763.975876  6742.901959
  5695.396  5695.400  0.500  245.692708  111.463473  1.984886  0.182732  6697.959922  7148.927978  6737.952494  6800.922102
  5697.392  5697.400  0.500  249.204625  111.483678  1.992689  0.183915  6680.957138  7307.126151  6946.134350  6848.030590
  5699.388  5699.400  0.500  250.858367  111.435675  1.999268  0.185007  6753.332404  7334.087654  6939.100152  6928.051362
  5701.391  5701.400  0.500  248.298790  111.447819  2.006080  0.186066  6752.302495  7129.958553  6951.107247  6838.990391
  5703.399  5703.400  0.500  252.740341  111.432342  2.012688  0.187051  6967.190291  7315.084926  6904.072896  6977.100104
  5705.399  5705.400  0.500  258.287487  111.425090  2.020445  0.188261  7103.172617  7471.179565  7128.214212  7077.140138
  5707.395  5707.400  0.500  261.170267  111.420791  2.025938  0.189359  7187.036134  7562.247147  7243.326269  7107.188277
  5709.399  5709.400  0.500  265.193939  111.327187  2.028392  0.189793  7293.302997  7712.344556  7147.292497  7370.355155
  5711.400  5711.400  0.500  270.757127  111.348391  2.030957  0.190484  7418.072690  7775.410602  7499.481702  7455.405411
  5713.403  5713.400  0.500  280.676415  111.378819  2.031111  0.190938  7719.498749  8017.546751  7723.690030  7800.672030
  5713.891  5713.900  0.500  282.541554  111.355314  2.029762  0.190818  7536.294851  8142.670432  7963.858564  7819.679504
  5714.389  5714.400  0.500  285.865663  111.351751  2.028564  0.190998  7862.445249  8246.707427  8044.879635  7677.609841
  5714.891  5714.900  0.500  286.747380  111.327363  2.026881  0.190661  7755.392781  8359.838884  8019.893752  7787.704370
  5715.390  5715.400  0.500  292.569975  111.285380  2.024884  0.190526  7940.057146  8496.911215  8133.983909  7987.808474
  5715.889  5715.900  0.500  296.501913  111.312270  2.022997  0.190359  8267.497838  8625.013720  8191.015577  7920.773863
  5716.389  5716.400  0.500  302.018208  111.294832  2.019110  0.189881  8214.848636  8786.119672  8454.168470  8157.929034
  5716.891  5716.900  0.500  308.682468  111.299552  2.014937  0.189675  8536.768036  8802.090469  8487.187595  8530.174418
  5717.390  5717.400  0.500  314.501024  111.281792  2.010242  0.189355  8493.294876  9106.326746  8798.380664  8600.235192
  5717.890  5717.900  0.500  320.021460  111.263927  2.003274  0.188389  8790.738530  9269.389919  8853.423843  8693.292056
  5718.391  5718.400  0.500  330.863567  111.222922  1.993036  0.187859  9014.789447  9595.623755  9194.684629  8994.515002
  5718.895  5718.900  0.500  338.302214  111.254772  1.982661  0.186620  9303.498047  9845.816909  9267.731876  9220.688950
  5719.394  5719.400  0.500  357.276068  111.249613  1.968135  0.185158  9720.264973  10241.087302  9937.341283  9848.130724
  5719.893  5719.900  0.500  373.092232  111.261912  1.950916  0.183253  10263.354537  10700.491453  10365.658917  10181.450221
  5720.389  5720.400  0.500  391.331285  111.245162  1.931604  0.181483  10637.146650  11295.806571  10901.015913  10699.742996
  5720.893  5720.900  0.500  405.086979  111.211497  1.914626  0.179750  11070.682536  11771.309100  11264.281533  10944.056199
  5721.395  5721.400  0.500  415.565720  111.210816  1.903620  0.178817  11189.092702  12099.471121  11642.583126  11284.255796
  5721.896  5721.900  0.500  425.402755  111.214605  1.893104  0.177619  11568.945976  12153.602990  11872.819757  11715.630411
  5722.393  5722.400  0.500  442.677060  111.190902  1.876909  0.175873  12121.744272  12684.920147  12358.126726  12056.870445
  5722.893  5722.900  0.500  462.695710  111.199824  1.851464  0.173224  12984.552829  12684.920147  12971.688785  12810.519979
  5723.395  5723.400  0.500  499.951822  111.218082  1.814619  0.169503  13685.871277  14430.292748  13830.369755  13657.148949
  5723.897  5723.900  0.500  541.618130  111.199139  1.765924  0.164562  14858.652728  15562.215427  15095.522362  14711.079323
  5724.395  5724.400  0.500  598.711712  111.191864  1.703412  0.158102  16397.803395  17198.674890  16609.847005  16365.545924
  5724.893  5724.900  0.500  670.987455  111.175427  1.627337  0.150143  18424.440747  19130.543947  18851.972177  18190.359946
  5725.394  5725.400  0.500  729.441438  111.190721  1.540882  0.141321  18424.440747  21444.469504  20897.884525  20340.324951
  5725.898  5725.900  0.500  847.251557  111.179604  1.436287  0.130678  23385.843609  23934.179805  23473.616975  23403.451916
  5726.396  5726.400  0.500  951.692946  111.142812  1.327863  0.119888  26035.603739  27420.734360  26460.165741  25857.326534
  5726.898  5726.900  0.500  1060.766466  111.149212  1.226004  0.109883  28802.459579  30393.066682  29446.653257  29261.177116
  5727.395  5727.400  0.500  1147.362862  111.144523  1.143958  0.101864  31312.550915  32821.413498  32032.953062  31356.180659
  5727.900  5727.900  0.500  1199.768282  111.152318  1.092203  0.096949  32860.428049  34476.342629  33508.548150  32511.706839
  5728.398  5728.400  0.500  1230.108248  111.148360  1.068123  0.094411  33664.072554  35128.324805  34287.916994  33644.200033
  5728.897  5728.900  0.500  1237.122132  111.176624  1.061410  0.093406  33664.072554  35128.324805  35039.184826  33707.479500
  5729.398  5729.400  0.500  1242.209501  111.182265  1.060388  0.093056  34143.266147  35527.731593  34698.516066  33742.152526
  5729.897  5729.900  0.500  1246.947978  111.176307  1.055828  0.092478  34337.741598  35581.742472  34995.173765  33716.413667
  5730.402  5730.400  0.500  1260.621278  111.148420  1.042932  0.091037  34337.741598  36014.614835  35353.437371  34410.270038
  5730.898  5730.900  0.500  1290.462232  111.148929  1.022408  0.089191  35293.763790  36957.564860  36161.195022  35020.971458
  5731.399  5731.400  0.500  1305.959424  111.135814  0.996849  0.086727  35293.763790  36957.564860  36898.186205  35989.348327
  5731.897  5731.900  0.500  1347.431175  111.115089  0.976724  0.085148  37003.005220  38234.616501  37806.900580  36675.412040
  5732.404  5732.400  0.500  1356.368482  111.090268  0.967349  0.084538  36756.482807  39067.421580  37699.580000  37155.853637
  5732.901  5732.900  0.500  1351.156439  111.118007  0.970928  0.085182  36756.482807  38688.082440  37770.626275  36922.619347
  5733.402  5733.400  0.500  1344.922130  111.111072  0.981651  0.086432  36489.326930  38706.877405  37544.252828  36695.282609
  5733.903  5733.900  0.500  1329.116051  111.097229  0.994157  0.087788  36501.022993  37943.655838  37000.155793  36216.276082
  5734.405  5734.400  0.500  1317.026735  111.087587  1.004525  0.089039  36024.966175  37715.381342  36706.058050  35858.916350
  5734.903  5734.900  0.500  1312.990689  111.079025  1.010353  0.089494  35713.226854  37238.251744  37032.349324  35861.897654
  5735.401  5735.400  0.500  1310.876141  111.051299  1.011013  0.089649  35906.300877  37005.819619  36635.091016  36027.287261
  5735.904  5735.900  0.500  1319.800117  111.023414  1.006191  0.089147  35870.003202  37757.765463  36845.544070  36055.402354
  5736.401  5736.400  0.500  1324.243948  111.033145  0.997771  0.088208  36298.015435  37952.974615  36826.533096  35957.447327
  5736.902  5736.900  0.500  1343.503242  110.978713  0.986217  0.087066  36703.778875  38205.577989  37896.902207  36294.002029
  5737.405  5737.400  0.500  1349.646630  110.999296  0.977367  0.086279  36550.709783  38781.524440  37642.955129  36834.635764
  5737.906  5737.900  0.500  1356.451427  111.016276  0.976242  0.085967  36550.709783  38781.524440  38029.985210  37225.965963
  5738.403  5738.400  0.500  1342.163480  111.019535  0.984682  0.086803  36550.339142  38413.485417  37591.479809  36451.060546
  5738.901  5738.900  0.500  1335.652402  111.011365  1.001254  0.088264  36550.339142  38413.485417  37198.142743  36110.629284
  5739.403  5739.400  0.500  1298.695578  111.013924  1.025124  0.090553  35306.960778  37092.950250  36340.702738  35432.678851
  5739.904  5739.900  0.500  1279.803050  111.002640  1.053602  0.093424  35306.960778  35863.477068  35458.401017  35432.678851
  5740.405  5740.400  0.500  1226.660259  111.015246  1.083514  0.096389  33385.273432  35174.207436  34111.560954  33506.948777
  5740.903  5740.900  0.500  1191.950477  110.975267  1.115205  0.099659  32288.608343  33878.585322  33371.945053  32737.883220
  5741.399  5741.400  0.500  1163.222314  110.986338  1.148316  0.103071  31274.413244  33263.014496  32480.429785  32083.926947
  5741.903  5741.900  0.500  1121.439246  110.970194  1.183575  0.106958  30341.635092  32079.413463  31445.072664  30580.209579
  5742.402  5742.400  0.500  1090.143163  110.965995  1.220900  0.110913  29808.214298  31128.141413  30293.513712  29738.951766
  5742.904  5742.900  0.500  1043.532018  110.963339  1.257654  0.114439  28386.814868  29617.323227  29384.321272  28405.337758
  5743.403  5743.400  0.500  1008.808838  110.940585  1.293984  0.118326  27576.503149  28838.364122  28003.809603  27499.166047
  5743.897  5743.900  0.500  985.313444  110.946006  1.328081  0.121969  26865.476621  28339.751152  27338.050823  26773.312939
  5744.396  5744.400  0.500  954.449007  110.951560  1.356943  0.125024  25959.575628  27226.887695  26718.483665  25992.659742
  5744.900  5744.900  0.500  937.499698  110.933301  1.382671  0.127668  25350.124907  26853.001733  26215.812925  25580.996938
  5745.401  5745.400  0.500  914.931059  110.930813  1.402734  0.129620  24929.777348  26217.363026  25613.914458  24732.991112
  5745.904  5745.900  0.500  900.727621  110.906488  1.418459  0.131433  24516.078393  25563.920685  25184.549388  24631.988912
  5746.404  5746.400  0.500  896.777723  110.893584  1.430906  0.132677  24188.836778  25758.035244  24949.226392  24550.797817
  5746.902  5746.900  0.500  892.605242  110.870342  1.440721  0.133898  24186.558644  25467.771905  24835.278059  24473.839771
  5747.399  5747.400  0.500  879.846681  110.869116  1.448714  0.134702  24056.421373  25246.514925  24350.731450  23894.155996
  5747.901  5747.900  0.500  879.080232  110.880540  1.455098  0.135566  23826.277023  25110.471287  24545.861337  23990.281040
  5748.405  5748.400  0.500  869.892754  110.868419  1.460738  0.136035  23816.258999  24898.187165  23837.099527  23892.088635
  5749.398  5749.390  0.500  867.053465  110.855460  1.468298  0.137120  23720.414498  24706.976811  24125.443954  23564.775875
  5750.405  5750.390  0.500  873.208022  110.852011  1.474752  0.138220  23673.310354  24696.876440  24600.745841  23825.932732
  5751.410  5751.410  0.500  861.073449  110.817361  1.480406  0.138786  23655.809097  24550.006615  23848.273630  23367.798276
  5752.468  5752.460  0.500  867.699112  110.794545  1.486539  0.139500  23364.889851  24720.947989  24405.691786  23644.798256
  5753.531  5753.520  0.500  870.844437  110.792840  1.492793  0.140108  23667.724454  24765.113715  24405.691786  23644.798256
  5754.605  5754.600  0.500  860.724135  110.745758  1.496022  0.140670  23615.940699  24446.807540  23817.098983  23441.699494
  5755.706  5755.700  0.500  867.960412  110.732717  1.497700  0.140709  23601.901748  24835.213763  24150.576510  23523.922694
  5756.830  5756.820  0.500  872.428457  110.731779  1.496924  0.140732  23601.901748  25151.294187  24122.466279  23729.892605
  5757.972  5757.960  0.500  883.722230  110.716915  1.493338  0.140506  23914.427344  25312.717974  24379.104283  24236.749369
  5759.119  5759.110  0.500  881.568886  110.693372  1.490557  0.140147  24077.863750  25161.715462  24279.738874  24064.514569
  5760.301  5760.290  0.500  889.369629  110.684416  1.487712  0.140141  24272.929499  25077.501519  24723.146328  24365.780803
  5761.487  5761.480  0.500  895.780295  110.673090  1.484379  0.139922  24574.959076  25419.893609  24646.029266  24497.891116
  5762.705  5762.700  0.500  910.821928  110.667882  1.479066  0.139508  24832.577772  25923.307671  25319.762261  24723.086325
  5763.939  5763.930  0.500  921.607781  110.610879  1.470030  0.138558  25312.373419  26256.901150  25470.052966  24900.519328
  5765.187  5765.180  0.500  940.978171  110.597730  1.460008  0.137831  25534.594959  26836.496033  26111.836735  25587.121586
  5766.455  5766.450  0.500  949.213488  110.593100  1.450625  0.136818  25788.207091  26989.705121  26529.240185  25669.309435
  5767.746  5767.740  0.500  963.042511  110.600052  1.443919  0.136048  26146.188619  27467.045050  26736.490796  26162.827706
  5769.060  5769.050  0.500  975.543311  110.556148  1.439071  0.135989  26427.669175  27770.477424  27140.878465  26513.285139
  5770.388  5770.380  0.500  978.522592  110.560244  1.436372  0.135925  26492.804498  28066.693325  26958.888832  26667.309931
  5771.736  5771.730  0.500  978.650268  110.543395  1.437074  0.136184  26654.244803  28042.818441  26958.888832  26527.371256
  5773.111  5773.100  0.500  982.895761  110.516207  1.438623  0.136481  26812.444511  27746.457983  27157.267731  26909.741484
  5774.489  5774.480  0.500  984.464682  110.497761  1.441619  0.136970  26641.319972  28038.885338  27398.328369  26702.609828
  5775.902  5775.890  0.500  990.767650  110.492151  1.446118  0.137748  26641.319972  28333.294218  27468.469123  27028.965898
  5777.318  5777.310  0.500  986.744463  110.453238  1.450557  0.138566  26811.076141  28181.032358  27252.317146  26744.695610
  5778.756  5778.750  0.500  987.386706  110.425784  1.457498  0.139482  26962.939579  28002.976442  27489.515282  26577.519858
  5780.221  5780.210  0.500  990.057297  110.431036  1.467535  0.140918  26962.939579  28098.912556  27489.515282  26781.685488
  5781.699  5781.690  0.500  970.102163  110.398396  1.479623  0.142558  26104.357965  27865.522308  26773.708852  26354.133579
  5783.197  5783.190  0.500  966.553057  110.378882  1.494085  0.144184  26548.959866  27348.301172  26754.801841  26034.983348
  5784.718  5784.710  0.500  956.463489  110.362401  1.508013  0.146040  25837.610026  27417.137282  26439.228842  25863.631106
  5786.260  5786.250  0.500  953.576989  110.316883  1.520442  0.147399  25617.745387  27208.825559  26416.350934  25952.719240
  5787.819  5787.810  0.500  950.402961  110.349007  1.532855  0.148941  25778.295037  27033.820348  26162.194758  25901.712817
  5789.391  5789.380  0.500  947.843232  110.298824  1.541887  0.150151  25701.529184  26735.455872  26404.455069  25704.553326
  5790.994  5790.980  0.500  947.220658  110.320807  1.551435  0.151416  25457.453887  27116.845331  26386.470779  25537.377396
  5792.600  5792.590  0.500  948.099630  110.227927  1.555974  0.152158  25555.709862  27219.876615  26266.238370  25465.231694
  5794.240  5794.230  0.500  939.091869  110.209971  1.563386  0.153081  25613.725946  26516.320447  26220.240068  25147.000946
  5795.891  5795.880  0.500  942.114016  110.166796  1.571602  0.154340  25386.702663  26639.472080  26060.955110  25702.552933
  5797.560  5797.550  0.500  938.472801  110.108742  1.579744  0.155409  25386.702663  26639.472080  25995.814447  25312.070457
  5799.249  5799.240  0.500  939.436802  110.118781  1.588444  0.156724  25561.470099  26690.250110  25798.755504  25399.160097
  5800.960  5800.950  0.500  938.633481  110.093222  1.596547  0.157765  25372.383362  26735.654543  25813.872152  25415.273912
  5802.692  5802.680  0.500  938.425919  110.089977  1.604540  0.158946  25161.963719  26520.309732  26128.721518  25500.292801
  5804.440  5804.430  0.500  934.384941  110.019367  1.611780  0.159985  25302.149566  26424.342281  25845.820392  25228.127352
  5806.196  5806.190  0.500  935.296590  109.967300  1.618500  0.160859  25203.480562  26479.016395  25839.590975  25329.952994
  5807.987  5807.980  0.500  934.837274  110.311847  1.630079  0.162233  25367.418829  26585.342713  25815.698152  25355.166550
  5809.790  5809.780  0.500  935.906294  110.273359  1.635965  0.163149  25334.207000  26629.474674  25767.617801  25474.230918
  5811.620  5811.610  0.500  940.431264  110.214052  1.640748  0.163909  25557.133072  26600.424647  26077.975970  25413.206743
  5813.461  5813.450  0.500  940.519517  110.166425  1.644468  0.164534  25401.764710  26738.465640  26088.148898  25385.293877
  5815.316  5815.310  0.500  946.206808  110.133156  1.646946  0.164839  25457.666042  27071.031082  25920.149476  25759.895326
  5817.196  5817.190  0.500  952.824566  110.089661  1.649457  0.165576  25931.467019  26859.727505  26158.084677  25946.853797
  5819.097  5819.090  0.500  956.545707  110.055380  1.649834  0.165856  25931.467019  26859.727505  26514.762985  25967.044132
  5821.018  5821.010  0.500  968.494718  110.009065  1.649787  0.166310  26365.900476  27465.433079  26553.684874  26158.180234
  5822.961  5822.950  0.500  971.895970  109.912335  1.648246  0.166299  26213.155657  27649.836000  26804.048193  26156.315320
  5824.920  5824.910  0.500  979.143735  109.926346  1.647717  0.166639  26599.094277  27882.978362  27041.264338  26110.355746
  5826.887  5826.880  0.500  991.429728  109.876513  1.646948  0.166720  26610.493599  28055.019143  27409.533204  26859.795970
  5828.890  5828.880  0.500  992.911813  109.796087  1.645719  0.167057  26610.493599  28164.318648  27546.962478  26696.056779
  5830.898  5830.890  0.500  997.961314  109.722510  1.645333  0.167371  26976.291823  28422.737960  27203.567194  26896.223607
  5832.928  5832.920  0.500  1007.549205  109.667217  1.647842  0.168096  27141.357563  28695.073014  27530.016562  27128.670507
  5834.985  5834.980  0.500  1005.903060  109.609981  1.652692  0.168903  27136.725444  28291.570415  27839.411053  26989.308029
  5837.056  5837.050  0.500  1013.547384  109.552324  1.660457  0.170143  27236.051609  28702.768045  27745.034894  27352.616997
  5839.146  5839.140  0.500  1007.752156  109.478393  1.668560  0.171488  26970.750760  28324.652501  27748.071517  27283.611984
  5841.255  5841.250  0.500  1005.472651  109.404578  1.677544  0.172787  26839.950222  28486.673138  27464.113556  27212.574316
  5843.383  5843.380  0.500  1008.735448  109.308331  1.687539  0.174449  27104.955749  28420.577000  27789.383165  26948.272590
  5845.524  5845.520  0.500  1004.433435  109.191588  1.698015  0.175892  26921.869614  28251.459306  27483.956455  27018.396643
  5847.694  5847.690  0.500  1000.275181  109.136090  1.708127  0.177417  26774.167866  28263.341988  27378.649742  26749.962899
  5849.884  5849.880  0.500  1003.355825  109.041859  1.715907  0.178890  26820.423641  28263.341988  27490.924041  26833.094636
  5852.088  5852.080  0.500  1004.807223  108.934129  1.723990  0.179974  26835.467386  28163.181819  27577.986018  26881.164234
  5854.304  5854.300  0.500  1005.309346  108.812382  1.731166  0.181386  27035.034602  28181.697990  27478.168488  26695.203533
  5856.557  5856.550  0.500  1006.528971  108.580030  1.735610  0.182146  26891.754887  28000.141417  27279.694524  27117.354884
  5858.821  5858.810  0.500  1007.407939  108.582535  1.742266  0.183258  27225.234792  28142.272252  27387.534172  26631.866182
  5861.095  5861.090  0.500  1006.851918  108.403442  1.751144  0.184806  26899.059150  28348.533535  27108.570966  26790.050221
  5863.399  5863.390  0.500  1004.022976  108.188004  1.763047  0.186748  26547.469652  28078.163081  27071.447321  26926.161273
  5865.720  5865.710  0.500  997.762224  107.870076  1.771020  0.187944  26454.179388  27672.749768  26912.017237  26589.740937
  5868.056  5868.050  0.500  997.296347  107.358560  1.774209  0.188680  25989.918270  27791.853936  26840.026792  26446.500743
  5870.409  5870.400  0.500  998.825048  105.880199  1.760306  0.187579  25835.330279  27370.110259  26337.241202  26213.112786
  5872.787  5872.780  0.500  1009.829527  86.817402  1.450814  0.155226  21421.200415  22670.245740  22066.391349  21512.938086
  5875.178  5875.170  0.500  997.156065  108.873586  1.830733  0.196082  26728.909872  27971.268599  27245.705872  26618.071942
  5877.597  5877.590  0.500  1002.474912  109.012167  1.841020  0.197798  26847.723172  28159.647768  27363.094637  26911.497164
  5880.028  5880.020  0.500  999.211284  108.677733  1.845752  0.198836  26938.548781  27706.247620  27136.781383  26810.439090
  5882.476  5882.470  0.500  998.944721  108.399602  1.852183  0.200155  26404.832087  28159.570264  27050.637587  26670.169773
  5884.957  5884.950  0.500  1002.534531  108.157610  1.856487  0.201090  26583.477600  28110.534139  27229.751214  26507.975850
  5887.449  5887.440  0.500  1007.782720  107.943456  1.860669  0.202054  26607.057926  28183.414076  27293.976458  26699.100791
  5889.956  5889.950  0.500  1011.801039  107.785976  1.865358  0.203290  26690.569306  28262.849606  27368.227789  26736.316136
  5892.479  5892.470  0.500  1013.607836  107.547427  1.869467  0.204281  26876.308120  28193.607212  27485.116193  26455.883739
  5895.025  5895.020  0.500  1017.832391  107.387041  1.873328  0.205294  26727.335039  28264.557095  27305.813464  27004.302750
  5897.597  5897.590  0.500  1022.047849  107.199403  1.877304  0.206354  26648.297913  28232.646959  27586.327758  27095.647112
  5900.184  5900.170  0.500  1027.565582  106.977294  1.882049  0.207135  26951.361598  28524.609106  27558.007912  26892.206692
  5902.792  5902.780  0.500  1030.665572  106.732721  1.887351  0.208115  26830.541081  28264.878169  27823.587074  27086.734137
  5905.422  5905.400  0.500  1025.837358  106.454036  1.891388  0.209281  26627.926746  28589.713738  27297.816727  26689.069427
  5908.071  5908.050  0.500  1031.654775  106.120481  1.895192  0.210258  26853.686104  28285.650339  27498.088390  26842.276343
  5910.732  5910.710  0.500  1030.597759  105.595130  1.895487  0.210835  26823.373570  28054.163622  27308.698553  26639.868391
  5913.411  5913.390  0.500  1042.073551  104.454760  1.884588  0.210249  26623.399068  28132.304801  27487.052610  26606.786113
  5916.099  5916.090  0.500  1051.423120  91.454894  1.658269  0.185966  23696.147689  24684.109497  24312.739094  23464.793988
  5918.830  5918.810  0.500  1040.473406  105.529395  1.925285  0.216135  27284.718362  28289.590690  27382.878619  26843.341019
  5921.562  5921.550  0.500  1047.612647  106.410405  1.951296  0.219707  27445.068149  28595.067754  28111.809441  27324.940811
  5924.321  5924.300  0.500  1053.455449  105.791540  1.950112  0.220505  27445.068149  28595.067754  27797.427751  27609.110411
  5927.078  5927.080  0.500  1054.644778  104.967381  1.945222  0.220675  27307.677501  28464.945424  27839.157494  27091.519566
  5929.884  5929.870  0.500  1051.425139  104.170461  1.943043  0.221045  26985.104326  28351.501268  27321.667458  26869.168675
  5932.690  5932.690  0.500  1050.817350  105.436667  1.980517  0.225931  27295.560566  28761.208309  27483.072488  27254.837827
  5935.541  5935.520  0.500  1051.090945  105.092442  1.986765  0.227421  27295.560566  28471.068730  27348.075259  27347.010056
  5938.364  5938.370  0.500  1050.333847  104.375050  1.986946  0.228156  26765.669333  28378.614555  27348.075259  27136.289105
  5941.241  5941.250  0.500  1053.318187  103.226800  1.977464  0.227800  26793.129067  27999.109065  27102.348736  26836.078418
  5944.133  5944.140  0.500  1060.212789  97.749331  1.885531  0.217779  25521.489971  26553.717210  26215.275064  25344.609024
  5947.038  5947.050  0.500  1058.220860  104.421583  2.027104  0.234921  27216.931046  28579.195147  27655.409422  27049.561584
  5949.965  5949.970  0.500  1053.652672  104.537040  2.042753  0.237390  26774.347932  28755.006836  27482.879939  27133.496994
  5952.929  5952.920  0.500  1049.907409  104.036493  2.045307  0.238258  26803.504290  27968.477439  27451.079466  27005.623233
  5955.888  5955.890  0.500  1057.884744  103.610347  2.049373  0.239483  26803.504290  28043.320124  27755.357474  27005.623233
  5958.864  5958.870  0.500  1057.798558  103.207402  2.053652  0.240882  26726.758281  28079.554534  27662.187882  26704.140535
  5961.869  5961.880  0.500  1062.842374  102.810275  2.058474  0.242142  26934.894809  28165.406861  27176.562823  26994.252237
  5964.894  5964.900  0.500  1063.095715  102.446848  2.063843  0.243392  26773.769202  28306.446229  27310.694823  26519.895350
  5967.940  5967.950  0.500  1065.796666  102.066064  2.068450  0.244807  26773.769202  28026.233047  27286.723823  26694.945034
  5971.006  5971.010  0.500  1065.588195  101.671292  2.072559  0.246380  26677.193025  27874.180866  27318.659389  26469.695178
  5974.080  5974.090  0.500  1072.028084  101.236897  2.076095  0.247449  26677.193025  27874.180866  27318.659389  26658.763312
  5977.184  5977.190  0.500  1061.891549  100.801266  2.078673  0.248518  26198.915364  27895.899046  26865.068425  26080.129702
  5980.300  5980.310  0.500  1075.096370  100.316791  2.082196  0.250026  26759.216632  27800.808478  26945.863627  26344.329514
  5983.440  5983.450  0.500  1077.865435  99.647845  2.081036  0.250786  26340.862320  27773.634818  26926.130282  26366.340920
  5986.594  5986.600  0.500  1082.271990  98.321200  2.066465  0.249540  26229.661695  27493.186314  26523.438890  26163.994167
  5989.770  5989.780  0.500  1191.770678  82.738476  1.747748  0.212242  22475.937584  27493.186314  26523.438890  22112.726614
  5992.971  5992.970  0.500  1083.407839  100.522097  2.137732  0.260011  26700.546072  28031.269458  27328.581896  26846.030600
  5996.181  5996.190  0.500  1085.468590  99.822112  2.135785  0.260660  26757.745564  27778.780684  27326.583588  26490.657520
  5999.408  5999.420  0.500  1089.141262  99.191981  2.134950  0.261308  26786.655712  27919.867069  26836.000527  26491.556296
  6002.666  6002.670  0.500  1096.587309  98.654309  2.135153  0.262081  26786.655712  27919.867069  27133.153460  26343.386670
  6005.941  6005.950  0.500  1092.512504  98.183950  2.137563  0.263110  26092.311851  27645.501365  27286.218588  26243.161097
  6009.223  6009.240  0.500  1094.263861  97.731360  2.140146  0.264715  26292.245391  27623.559470  26676.756669  26351.333474
  6012.542  6012.550  0.500  1098.720819  97.245195  2.143864  0.265712  26434.261499  27330.120316  26695.686055  26385.252062
  6015.860  6015.870  0.500  1107.945841  96.794939  2.147639  0.267474  26624.659256  27554.239716  26720.581624  26344.069144
  6019.214  6019.220  0.500  1111.863058  96.339776  2.152572  0.268971  26624.659256  27460.191954  26687.717314  26344.069144
  6022.581  6022.590  0.500  1111.495072  95.928842  2.159599  0.270803  26509.276692  27189.778333  26854.582078  26070.798505
  6025.950  6025.970  0.500  1109.254145  95.503266  2.165159  0.272365  25965.477391  27433.023231  26690.326518  25848.566809
  6029.367  6029.380  0.500  1109.078091  95.041763  2.170212  0.274086  25636.894161  27345.999857  26375.155850  26050.687255
  6032.792  6032.800  0.500  1112.761648  94.598120  2.175737  0.275885  26053.214936  27159.690408  26291.856479  25760.398576
  6036.242  6036.250  0.500  1109.413280  94.161224  2.180246  0.277582  25530.275364  27009.504292  26219.747372  25704.184803
  6039.708  6039.710  0.500  1116.447795  93.675105  2.184530  0.278781  25657.785867  26985.504749  26201.786188  25738.287551
  6043.177  6043.190  0.500  1115.547438  93.217084  2.189282  0.280559  25662.370180  26886.331616  25926.361435  25513.015766
  6046.679  6046.690  0.500  1121.120237  92.766189  2.194892  0.282500  25408.962308  26958.467702  26072.612298  25562.009472
  6050.207  6050.210  0.500  1120.076327  92.318630  2.200174  0.284064  25401.624901  26779.170943  25921.395577  25301.720900
  6053.738  6053.750  0.500  1126.552939  91.802189  2.205385  0.285535  25507.380605  26802.988080  25895.179077  25214.477994
  6057.285  6057.300  0.500  1125.960156  91.222478  2.206594  0.286756  25622.306474  26777.811715  25105.429598  25207.327874
  6060.872  6060.880  0.500  1134.665810  90.639838  2.208360  0.287926  25469.595994  26417.223706  25583.710069  25375.394894
  6064.471  6064.480  0.500  1127.646272  90.158777  2.211423  0.289363  24924.301910  26476.556398  25341.385933  24924.964327
  6068.090  6068.090  0.500  1132.988354  89.659977  2.214663  0.290969  25129.158833  26310.295762  25450.522720  24693.732815
  6071.707  6071.720  0.500  1132.990169  89.221115  2.218357  0.292228  24766.471308  26167.018423  25251.224392  24901.932183
  6075.362  6075.380  0.500  1132.535715  88.740189  2.221769  0.294095  24785.025633  25700.672580  25189.083310  24826.652210
  6079.034  6079.050  0.500  1137.130230  88.269050  2.223642  0.295337  24761.196370  25882.683133  24938.862611  24790.663388
  6082.726  6082.740  0.500  1141.203309  87.769008  2.227360  0.296830  24762.204680  25872.742196  25236.127758  24291.208324
  6086.436  6086.450  0.500  1138.888219  87.238933  2.229936  0.298285  24461.330797  25840.530273  24683.428996  24370.102556
  6090.165  6090.180  0.500  1151.770893  86.707469  2.233193  0.300148  24816.751786  25840.530273  25015.862649  24193.994151
  6093.900  6093.920  0.500  1152.399764  86.294817  2.238548  0.301828  24354.215593  25828.407465  24890.498647  24373.004901
  6097.675  6097.690  0.500  1148.871518  85.788289  2.242637  0.303523  24195.827235  25443.798514  24828.375495  24091.720522
  6101.465  6101.480  0.500  1151.896817  85.284014  2.246098  0.305149  24144.527038  25514.949315  24666.409433  23912.498160
  6105.261  6105.280  0.500  1159.687034  84.765150  2.247935  0.306624  24449.703169  25438.044828  24451.853652  23961.443772
  6109.100  6109.110  0.500  1155.274616  84.239150  2.251770  0.308209  24023.375787  25358.792767  24372.046196  23565.136956
  6112.943  6112.950  0.500  1159.830039  83.718213  2.254057  0.309612  24094.159617  24992.619502  24117.784790  23894.334172
  6116.795  6116.810  0.500  1161.309183  83.167223  2.256090  0.310970  23715.152687  24981.247552  24255.530062  23630.929425
  6120.675  6120.690  0.500  1161.065279  82.609503  2.255620  0.312173  23682.152727  24913.152346  23738.926499  23580.793525
  6124.577  6124.590  0.500  1174.430563  82.067450  2.257004  0.313294  23612.964492  25141.373945  23982.218741  23645.964478
  6128.495  6128.510  0.500  1169.165920  81.461980  2.257056  0.314346  23612.964492  24603.901183  23874.289545  23151.415120
  6132.428  6132.450  0.500  1171.204189  80.908291  2.257141  0.315473  23366.188541  24676.927788  23762.882211  22954.131288
  6136.395  6136.410  0.500  1168.756843  80.284346  2.254414  0.316645  23072.644545  24237.416401  23403.542172  23119.275925
  6140.367  6140.380  0.500  1175.083760  79.664177  2.253837  0.317738  23363.097490  24055.413714  23364.509410  22829.060202
  6144.360  6144.380  0.500  1178.222067  79.028872  2.251626  0.318437  22851.602827  24207.002393  23472.418341  22582.537236
  6148.379  6148.390  0.500  1173.780738  78.344259  2.247598  0.319067  22596.540088  23865.943627  22857.861146  22638.637745
  6152.417  6152.430  0.500  1185.871375  77.562252  2.238346  0.319117  22819.016200  23547.486184  22978.876882  22633.474951
