# XDI/1.0 BlueSky/1.5.3
# Beamline.name: 6BM
# Beamline.xray_source: NSLS-II three-pole wiggler
# Beamline.collimation: paraboloid mirror, 5 nm Rh on 30 nm Pt
# Beamline.focusing: not in use
# Beamline.harmonic_rejection: flat mirror, Si stripe, pitch = 7.0 mrad relative to beam
# Detector.i0: 10 cm N2
# Detector.i1: 25 cm N2
# Detector.i2: 25 cm N2
# Element.symbol: Cr
# Element.edge: K
# Facility.name: NSLS-II
# Facility.energy: 3.0
# Facility.current: 400.8
# Facility.mode: top-off
# Facility.gup: 305882
# Facility.saf: 305422
# Facility.cycle: 2020-1
# Mono.name: Si(111)
# Mono.d_spacing: 3.1353241
# Mono.encoder_resolution: 0.0000050 deg/ct
# Mono.angle_offset: 16.0581090 deg
# Mono.scan_mode: fixed exit
# Mono.scan_type: step
# Mono.direction: forward in energy
# Sample.name: Cr3(OH)2(OOCCH3)7
# Sample.prep: powder on tape 4x
# Sample.x_position: -74.438 mm
# Sample.y_position: 112.405 mm
# Scan.experimenters: Sarah Nicholas, Bruce Ravel
# Scan.edge_energy: 5989.0
# Scan.start_time: 2020-01-29T17:12:24
# Scan.end_time: 2020-01-30T02:14:17
# Scan.transient_id: 20501
# Scan.uid: 8a546d51-2c87-439f-bd7f-5d2bfd9dddeb
# Scan.plot_hint: ln(I0/It)  --  ln($5/$6)
# Scan.sequence: merge of 16 scans
# Column.1: energy eV
# Column.2: requested_energy eV
# Column.3: measurement_time seconds
# Column.4: mutrans
# Column.5: i0
# Column.6: itrans
# Column.7: irefer
# /////
#  Fisher, ground in AW M&P
# -----
# energy   requested_energy   measurement_time   mutrans   i0   itrans   irefer
5788.982000 5789.000000 0.500000 5.059197 47.753937 0.303292 0.052999
5799.004000 5799.000000 0.500000 5.032218 47.695167 0.311198 0.054869
5809.019000 5809.000000 0.500000 5.002544 47.656678 0.320322 0.057244
5819.009000 5819.000000 0.500000 4.974858 47.593031 0.328867 0.059392
5829.016000 5829.000000 0.500000 4.946258 47.524854 0.337926 0.061305
5839.015000 5839.000000 0.500000 4.919123 47.434811 0.346562 0.063800
5849.012000 5849.000000 0.500000 4.891816 47.314382 0.355367 0.065736
5859.010000 5859.000000 0.500000 4.864078 47.134795 0.363859 0.068141
5869.008000 5869.000000 0.500000 4.837050 45.988980 0.364734 0.068760
5879.008000 5879.000000 0.500000 4.809193 47.524051 0.387555 0.073706
5889.009000 5889.000000 0.500000 4.784576 47.259191 0.395000 0.075695
5899.008000 5899.000000 0.500000 4.757440 47.075683 0.404293 0.078127
5909.007000 5909.000000 0.500000 4.730837 46.820633 0.412938 0.080720
5919.009000 5919.000000 0.500000 4.706311 34.912449 0.315565 0.061860
5929.385000 5929.000000 0.500000 4.679404 45.290088 0.420934 0.083670
5938.995000 5939.000000 0.500000 4.651867 46.346759 0.442303 0.088634
5948.992000 5949.000000 0.500000 4.626626 46.872901 0.458799 0.092743
5959.004000 5959.000000 0.500000 4.601641 46.524154 0.466914 0.095180
5960.997000 5961.000000 0.500000 4.596283 46.473312 0.468909 0.095742
5962.995000 5963.000000 0.500000 4.591982 46.416835 0.470358 0.096067
5964.993000 5965.000000 0.500000 4.586343 46.361825 0.472457 0.096655
5966.992000 5967.000000 0.500000 4.580984 46.300788 0.474364 0.096880
5968.996000 5969.000000 0.500000 4.576193 46.249662 0.476120 0.097788
5970.998000 5971.000000 0.500000 4.571102 46.187547 0.477911 0.098047
5972.997000 5973.000000 0.500000 4.566345 46.124736 0.479536 0.098597
5974.998000 5975.000000 0.500000 4.561683 46.044078 0.480934 0.099435
5977.002000 5977.000000 0.500000 4.556601 45.989880 0.482816 0.099675
5979.001000 5979.000000 0.500000 4.551450 45.911700 0.484485 0.100245
5979.241000 5979.250000 0.500000 4.551212 45.893283 0.484400 0.100112
5979.488000 5979.500000 0.500000 4.549798 45.905532 0.485216 0.100172
5979.739000 5979.750000 0.500000 4.549311 45.894219 0.485334 0.100472
5979.988000 5980.000000 0.500000 4.548856 45.895082 0.485563 0.100494
5980.240000 5980.250000 0.500000 4.548206 45.880520 0.485723 0.100410
5980.487000 5980.500000 0.500000 4.548006 45.879878 0.485813 0.100744
5980.738000 5980.750000 0.500000 4.546985 45.884352 0.486357 0.100625
5980.988000 5981.000000 0.500000 4.545902 45.879891 0.486836 0.100735
5981.238000 5981.250000 0.500000 4.546557 45.865512 0.486368 0.100683
5981.490000 5981.500000 0.500000 4.544872 45.851764 0.487045 0.100744
5981.739000 5981.750000 0.500000 4.544686 45.836441 0.486970 0.100930
5981.989000 5982.000000 0.500000 4.543679 45.829954 0.487386 0.100995
5982.240000 5982.250000 0.500000 4.543243 45.805834 0.487350 0.100973
5982.492000 5982.500000 0.500000 4.542120 45.786642 0.487690 0.101002
5982.742000 5982.750000 0.500000 4.542258 45.770502 0.487456 0.101151
5982.994000 5983.000000 0.500000 4.541182 45.755130 0.487813 0.101241
5983.243000 5983.250000 0.500000 4.540193 45.744308 0.488176 0.100932
5983.491000 5983.500000 0.500000 4.540439 45.724594 0.487849 0.101226
5983.743000 5983.750000 0.500000 4.539190 45.701178 0.488214 0.101078
5983.992000 5984.000000 0.500000 4.538699 45.671352 0.488126 0.100926
5984.243000 5984.250000 0.500000 4.538426 45.644624 0.487980 0.100932
5984.493000 5984.500000 0.500000 4.538003 45.625192 0.487970 0.101024
5984.744000 5984.750000 0.500000 4.537595 45.602414 0.487930 0.100871
5984.995000 5985.000000 0.500000 4.536537 45.569549 0.488096 0.100820
5985.245000 5985.250000 0.500000 4.536380 45.537773 0.487830 0.100885
5985.496000 5985.500000 0.500000 4.535477 45.495718 0.487825 0.100925
5985.745000 5985.750000 0.500000 4.534689 45.458733 0.487800 0.100827
5985.996000 5986.000000 0.500000 4.535342 45.429476 0.487183 0.100925
5986.242000 5986.250000 0.500000 4.533870 45.388497 0.487449 0.100518
5986.493000 5986.500000 0.500000 4.532972 45.340605 0.487378 0.100865
5986.741000 5986.750000 0.500000 4.532815 45.286642 0.486872 0.100383
5986.996000 5987.000000 0.500000 4.532459 45.226443 0.486406 0.100393
5987.244000 5987.250000 0.500000 4.531666 45.160766 0.486074 0.100253
5987.498000 5987.500000 0.500000 4.530942 45.089261 0.485657 0.099928
5987.747000 5987.750000 0.500000 4.529958 45.004919 0.485228 0.099645
5987.997000 5988.000000 0.500000 4.529420 44.913583 0.484506 0.099381
5988.248000 5988.250000 0.500000 4.528851 44.789656 0.483442 0.099189
5988.497000 5988.500000 0.500000 4.528577 44.649793 0.482061 0.098370
5988.745000 5988.750000 0.500000 4.528306 44.478628 0.480343 0.096915
5988.996000 5989.000000 0.500000 4.527897 44.284062 0.478443 0.095826
5989.246000 5989.250000 0.500000 4.527222 44.030015 0.476016 0.094134
5989.497000 5989.500000 0.500000 4.527712 43.690291 0.472110 0.092277
5989.750000 5989.750000 0.500000 4.528424 43.222746 0.466730 0.090406
5990.001000 5990.000000 0.500000 4.528216 42.561880 0.459686 0.088007
5990.250000 5990.250000 0.500000 4.528843 41.616362 0.449195 0.085585
5990.500000 5990.500000 0.500000 4.529097 40.228572 0.434102 0.082055
5990.750000 5990.750000 0.500000 4.527645 38.235222 0.413187 0.077566
5991.000000 5991.000000 0.500000 4.527427 35.921373 0.388269 0.072351
5991.248000 5991.250000 0.500000 4.526498 34.011507 0.367969 0.067794
5991.498000 5991.500000 0.500000 4.525849 33.324722 0.360775 0.066004
5991.746000 5991.750000 0.500000 4.527792 34.330684 0.370966 0.067765
5991.999000 5992.000000 0.500000 4.530462 37.156032 0.400423 0.072862
5992.250000 5992.250000 0.500000 4.529082 40.957005 0.441991 0.080194
5992.501000 5992.500000 0.500000 4.526084 43.965097 0.475873 0.086112
5992.751000 5992.750000 0.500000 4.525157 45.548482 0.493460 0.089191
5993.001000 5993.000000 0.500000 4.523591 46.191958 0.501206 0.090204
5993.252000 5993.250000 0.500000 4.522388 46.430430 0.504401 0.090539
5993.498000 5993.500000 0.500000 4.521208 46.517817 0.505944 0.090559
5993.749000 5993.750000 0.500000 4.521412 46.554726 0.506244 0.090164
5993.998000 5994.000000 0.500000 4.521139 46.550945 0.506339 0.090256
5994.246000 5994.250000 0.500000 4.521199 46.537548 0.506162 0.089889
5994.499000 5994.500000 0.500000 4.521562 46.526914 0.505867 0.090045
5994.751000 5994.750000 0.500000 4.521575 46.512495 0.505699 0.089955
5995.001000 5995.000000 0.500000 4.521641 46.492544 0.505449 0.089775
5995.254000 5995.250000 0.500000 4.522459 46.459620 0.504680 0.089608
5995.503000 5995.500000 0.500000 4.522227 46.445846 0.504656 0.090213
5995.754000 5995.750000 0.500000 4.522036 46.419031 0.504458 0.089751
5996.004000 5996.000000 0.500000 4.521600 46.389575 0.504364 0.089986
5996.250000 5996.250000 0.500000 4.520344 46.386135 0.504948 0.090006
5996.499000 5996.500000 0.500000 4.520759 46.360861 0.504465 0.089834
5996.748000 5996.750000 0.500000 4.520971 46.331841 0.504047 0.089278
5996.996000 5997.000000 0.500000 4.520274 46.312913 0.504183 0.089140
5997.248000 5997.250000 0.500000 4.521565 46.293057 0.503328 0.088226
5997.498000 5997.500000 0.500000 4.521769 46.270616 0.502973 0.087860
5997.749000 5997.750000 0.500000 4.523197 46.244878 0.501986 0.086935
5998.002000 5998.000000 0.500000 4.524218 46.215770 0.501149 0.086236
5998.251000 5998.250000 0.500000 4.524844 46.206523 0.500736 0.085099
5998.503000 5998.500000 0.500000 4.526735 46.183644 0.499538 0.084555
5998.752000 5998.750000 0.500000 4.528583 46.169538 0.498458 0.083918
5999.002000 5999.000000 0.500000 4.531239 46.152773 0.496960 0.082784
5999.251000 5999.250000 0.500000 4.534650 46.135740 0.495092 0.081697
5999.502000 5999.500000 0.500000 4.537310 46.121214 0.493611 0.081221
5999.751000 5999.750000 0.500000 4.541646 46.103635 0.491293 0.080221
6000.003000 6000.000000 0.500000 4.546171 46.077988 0.488795 0.079227
6000.250000 6000.250000 0.500000 4.550318 46.065738 0.486668 0.078345
6000.504000 6000.500000 0.500000 4.555703 46.052591 0.483889 0.077368
6000.751000 6000.750000 0.500000 4.560513 46.041354 0.481463 0.076757
6001.003000 6001.000000 0.500000 4.566174 46.030912 0.478618 0.075710
6001.249000 6001.250000 0.500000 4.572138 46.014777 0.475642 0.074852
6001.500000 6001.500000 0.500000 4.578259 46.006471 0.472631 0.074155
6001.748000 6001.750000 0.500000 4.585734 45.993766 0.469012 0.073231
6001.997000 6002.000000 0.500000 4.591866 45.980618 0.466005 0.072564
6002.249000 6002.250000 0.500000 4.600052 45.962726 0.462038 0.071555
6002.500000 6002.500000 0.500000 4.606997 45.957370 0.458773 0.070930
6002.751000 6002.750000 0.500000 4.615206 45.944216 0.454895 0.069876
6003.004000 6003.000000 0.500000 4.622856 45.933324 0.451272 0.069102
6003.252000 6003.250000 0.500000 4.629575 45.918238 0.448119 0.068319
6003.503000 6003.500000 0.500000 4.638020 45.904037 0.444206 0.067470
6003.754000 6003.750000 0.500000 4.643441 45.894328 0.441697 0.066936
6004.002000 6004.000000 0.500000 4.650122 45.882098 0.438654 0.066272
6004.250000 6004.250000 0.500000 4.656503 45.866339 0.435732 0.065535
6004.498000 6004.500000 0.500000 4.661482 45.855284 0.433489 0.065224
6004.749000 6004.750000 0.500000 4.667027 45.838714 0.430931 0.064496
6004.999000 6005.000000 0.500000 4.671278 45.827438 0.428996 0.063977
6005.252000 6005.250000 0.500000 4.676105 45.818647 0.426837 0.063363
6005.500000 6005.500000 0.500000 4.680028 45.803375 0.425040 0.062891
6005.752000 6005.750000 0.500000 4.683186 45.788450 0.423541 0.062636
6006.004000 6006.000000 0.500000 4.685636 45.781672 0.422437 0.062111
6006.252000 6006.250000 0.500000 4.688180 45.770894 0.421269 0.061689
6006.503000 6006.500000 0.500000 4.689795 45.753820 0.420421 0.061597
6006.751000 6006.750000 0.500000 4.691129 45.738356 0.419734 0.061453
6007.000000 6007.000000 0.500000 4.693097 45.733066 0.418853 0.061003
6007.250000 6007.250000 0.500000 4.694756 45.721787 0.418063 0.060388
6007.500000 6007.500000 0.500000 4.697415 45.706985 0.416819 0.060233
6007.752000 6007.750000 0.500000 4.698955 45.697101 0.416084 0.059782
6008.002000 6008.000000 0.500000 4.700058 45.682870 0.415494 0.059536
6008.255000 6008.250000 0.500000 4.701989 45.674569 0.414616 0.059332
6008.503000 6008.500000 0.500000 4.702607 45.662883 0.414256 0.058872
6008.751000 6008.750000 0.500000 4.703624 45.649714 0.413714 0.058804
6009.003000 6009.000000 0.500000 4.705453 45.643964 0.412914 0.058513
6009.251000 6009.250000 0.500000 4.704207 45.634382 0.413339 0.058458
6009.499000 6009.500000 0.500000 4.705029 45.624730 0.412914 0.058143
6009.746000 6009.750000 0.500000 4.705162 45.613442 0.412757 0.058143
6009.996000 6010.000000 0.500000 4.703548 45.607748 0.413351 0.058405
6010.248000 6010.250000 0.500000 4.703698 45.608484 0.413320 0.058275
6010.499000 6010.500000 0.500000 4.703001 45.603978 0.413558 0.059128
6010.751000 6010.750000 0.500000 4.702733 45.605826 0.413692 0.059018
6011.003000 6011.000000 0.500000 4.701977 45.595615 0.413905 0.059644
6011.255000 6011.250000 0.500000 4.701889 45.581055 0.413821 0.059805
6011.505000 6011.500000 0.500000 4.701031 45.581660 0.414172 0.060341
6011.755000 6011.750000 0.500000 4.700483 45.591282 0.414491 0.060594
6012.001000 6012.000000 0.500000 4.700257 45.580585 0.414479 0.061009
6012.252000 6012.250000 0.500000 4.701176 45.567240 0.413982 0.061209
6012.499000 6012.500000 0.500000 4.699852 45.561540 0.414473 0.061625
6012.751000 6012.750000 0.500000 4.698849 45.552966 0.414813 0.061796
6013.001000 6013.000000 0.500000 4.698272 45.558484 0.415113 0.062040
6013.253000 6013.250000 0.500000 4.696829 45.565489 0.415769 0.062384
6013.503000 6013.500000 0.500000 4.696016 45.557851 0.416040 0.062602
6013.752000 6013.750000 0.500000 4.695251 45.545151 0.416242 0.062916
6014.002000 6014.000000 0.500000 4.694160 45.534922 0.416605 0.063177
6015.003000 6014.990000 0.500000 4.688849 45.502400 0.418517 0.063428
6016.017000 6015.990000 0.500000 4.682888 45.468755 0.420747 0.063096
6017.005000 6017.010000 0.500000 4.676516 45.428116 0.423020 0.063447
6018.057000 6018.060000 0.500000 4.671530 45.393735 0.424810 0.062986
6019.123000 6019.120000 0.500000 4.665939 45.372998 0.427000 0.062754
6020.199000 6020.200000 0.500000 4.660266 45.348193 0.429181 0.063275
6021.311000 6021.300000 0.500000 4.653129 45.317881 0.431998 0.063931
6022.425000 6022.420000 0.500000 4.646564 45.292896 0.434583 0.064379
6023.573000 6023.560000 0.500000 4.637965 45.257296 0.438023 0.065683
6024.717000 6024.710000 0.500000 4.628674 45.224155 0.441765 0.066044
6025.895000 6025.890000 0.500000 4.619750 45.187188 0.445352 0.066024
6027.088000 6027.080000 0.500000 4.610696 45.152660 0.449077 0.066333
6028.304000 6028.300000 0.500000 4.600905 45.123326 0.453179 0.066227
6029.541000 6029.530000 0.500000 4.590690 45.086937 0.457485 0.066890
6030.786000 6030.780000 0.500000 4.580287 45.056070 0.461934 0.067253
6032.057000 6032.050000 0.500000 4.570898 45.025366 0.465980 0.067910
6033.348000 6033.340000 0.500000 4.560681 44.982652 0.470319 0.068681
6034.657000 6034.650000 0.500000 4.552755 44.939682 0.473602 0.068891
6035.988000 6035.980000 0.500000 4.546670 44.903238 0.476111 0.069151
6037.337000 6037.330000 0.500000 4.541500 44.870763 0.478227 0.069374
6038.708000 6038.700000 0.500000 4.538853 44.825972 0.479021 0.069425
6040.088000 6040.080000 0.500000 4.538465 44.787075 0.478793 0.069554
6041.497000 6041.490000 0.500000 4.538855 44.750158 0.478207 0.069678
6042.916000 6042.910000 0.500000 4.540186 44.707132 0.477113 0.069925
6044.359000 6044.350000 0.500000 4.539130 44.667779 0.477196 0.069730
6045.818000 6045.810000 0.500000 4.538209 44.619655 0.477124 0.070389
6047.295000 6047.290000 0.500000 4.537170 44.570143 0.477085 0.070489
6048.801000 6048.790000 0.500000 4.535240 44.518820 0.477460 0.070915
6050.316000 6050.310000 0.500000 4.532484 44.476255 0.478314 0.071793
6051.860000 6051.850000 0.500000 4.530779 44.434403 0.478681 0.072458
6053.417000 6053.410000 0.500000 4.529258 44.378860 0.478816 0.073403
6054.986000 6054.980000 0.500000 4.527482 44.305234 0.478867 0.073815
6056.589000 6056.580000 0.500000 4.524689 44.227639 0.479369 0.074073
6058.196000 6058.190000 0.500000 4.521850 44.160192 0.479995 0.074893
6059.835000 6059.830000 0.500000 4.519170 44.083953 0.480448 0.075017
6061.487000 6061.480000 0.500000 4.516236 44.003892 0.480989 0.075289
6063.159000 6063.150000 0.500000 4.513333 43.941713 0.481707 0.075402
6064.848000 6064.840000 0.500000 4.511172 43.882560 0.482098 0.074813
6066.558000 6066.550000 0.500000 4.508240 43.830641 0.482943 0.074491
6068.286000 6068.280000 0.500000 4.505792 43.790219 0.483677 0.074038
6070.034000 6070.030000 0.500000 4.502891 43.730772 0.484422 0.073361
6071.799000 6071.790000 0.500000 4.500805 43.664404 0.484706 0.073559
6073.586000 6073.580000 0.500000 4.497315 43.613390 0.485820 0.073667
6075.386000 6075.380000 0.500000 4.494550 43.556561 0.486535 0.074639
6077.218000 6077.210000 0.500000 4.490724 43.495332 0.487715 0.075682
6079.058000 6079.050000 0.500000 4.485565 43.435856 0.489564 0.076617
6080.914000 6080.910000 0.500000 4.480179 43.389556 0.491684 0.078301
6082.802000 6082.790000 0.500000 4.474200 43.324600 0.493903 0.079233
6084.699000 6084.690000 0.500000 4.468543 43.267926 0.496051 0.080201
6086.618000 6086.610000 0.500000 4.462275 43.185277 0.498209 0.080441
6088.556000 6088.550000 0.500000 4.454253 43.129455 0.501571 0.080034
6090.522000 6090.510000 0.500000 4.446554 43.071513 0.504780 0.079469
6092.489000 6092.480000 0.500000 4.440028 43.003666 0.507277 0.078438
6094.486000 6094.480000 0.500000 4.432318 42.921412 0.510219 0.077677
6096.495000 6096.490000 0.500000 4.426491 42.832723 0.512141 0.076885
6098.536000 6098.520000 0.500000 4.419014 42.755304 0.515069 0.076899
6100.591000 6100.580000 0.500000 4.413262 42.667527 0.516970 0.076846
6102.655000 6102.650000 0.500000 4.407057 42.580575 0.519111 0.078264
6104.749000 6104.740000 0.500000 4.401694 42.490744 0.520810 0.079526
6106.859000 6106.850000 0.500000 4.396351 42.406956 0.522573 0.081135
6108.988000 6108.980000 0.500000 4.391373 42.316615 0.524064 0.083193
6111.127000 6111.120000 0.500000 4.386337 42.213186 0.525419 0.084662
6113.294000 6113.290000 0.500000 4.381117 42.116988 0.526962 0.085824
6115.488000 6115.480000 0.500000 4.376476 42.015210 0.528142 0.086496
6117.693000 6117.680000 0.500000 4.371711 41.912153 0.529369 0.086598
6119.909000 6119.900000 0.500000 4.366392 41.812143 0.530912 0.086849
6122.158000 6122.150000 0.500000 4.361162 41.686385 0.532098 0.086902
6124.413000 6124.410000 0.500000 4.355674 41.581978 0.533677 0.087196
6126.697000 6126.690000 0.500000 4.350407 41.469434 0.535045 0.087922
6129.000000 6128.990000 0.500000 4.345450 41.353165 0.536206 0.088806
6131.319000 6131.310000 0.500000 4.339739 41.227682 0.537641 0.089576
6133.657000 6133.650000 0.500000 4.334430 41.087841 0.538667 0.089770
6136.004000 6136.000000 0.500000 4.329417 40.958866 0.539671 0.090165
6138.384000 6138.380000 0.500000 4.323501 40.814292 0.540957 0.090360
6140.778000 6140.770000 0.500000 4.318869 40.673523 0.541601 0.090614
6143.198000 6143.190000 0.500000 4.313984 40.536708 0.542426 0.090243
6145.634000 6145.620000 0.500000 4.308357 40.373183 0.543289 0.090323
6148.076000 6148.070000 0.500000 4.303545 40.210226 0.543698 0.090138
6150.557000 6150.550000 0.500000 4.298482 40.025207 0.543948 0.090097
6153.047000 6153.040000 0.500000 4.293199 39.812163 0.543918 0.089806
6155.554000 6155.550000 0.500000 4.287111 39.557422 0.543737 0.089963
6158.075000 6158.070000 0.500000 4.282081 39.160182 0.540992 0.089220
6160.630000 6160.620000 0.500000 4.275877 38.389178 0.533647 0.087529
6163.200000 6163.190000 0.500000 4.269405 36.932330 0.516727 0.084199
6165.783000 6165.770000 0.500000 4.262899 36.434669 0.513095 0.083222
6168.394000 6168.380000 0.500000 4.258509 39.256412 0.555274 0.090579
6171.010000 6171.000000 0.500000 4.251703 39.093735 0.556741 0.091881
6173.672000 6173.650000 0.500000 4.243959 38.848725 0.557570 0.092899
6176.318000 6176.310000 0.500000 4.237678 38.620176 0.557765 0.094023
6178.999000 6178.990000 0.500000 4.230709 38.385915 0.558261 0.094862
6181.702000 6181.690000 0.500000 4.223429 38.152338 0.558925 0.095781
6184.419000 6184.410000 0.500000 4.216826 37.922105 0.559234 0.096514
6187.161000 6187.150000 0.500000 4.209282 37.689138 0.560010 0.096830
6189.911000 6189.900000 0.500000 4.202548 37.458309 0.560346 0.097120
6192.686000 6192.680000 0.500000 4.194957 37.226939 0.561118 0.097673
6195.478000 6195.470000 0.500000 4.188238 36.985165 0.561240 0.098063
6198.299000 6198.290000 0.500000 4.180760 36.736785 0.561656 0.098636
6201.130000 6201.120000 0.500000 4.173686 36.489589 0.561839 0.098930
6203.982000 6203.970000 0.500000 4.167421 36.233614 0.561412 0.099321
6206.863000 6206.850000 0.500000 4.159730 35.971164 0.561650 0.099753
6209.749000 6209.740000 0.500000 4.152729 35.700156 0.561327 0.100118
6212.659000 6212.650000 0.500000 4.146155 35.432224 0.560795 0.100482
6215.579000 6215.570000 0.500000 4.139767 35.159098 0.560038 0.100660
6218.531000 6218.520000 0.500000 4.132944 34.880202 0.559403 0.100677
6221.495000 6221.490000 0.500000 4.127008 34.602430 0.558250 0.100287
6224.477000 6224.470000 0.500000 4.120581 34.314764 0.557184 0.099944
6227.482000 6227.480000 0.500000 4.113621 34.017835 0.556213 0.099204
6230.502000 6230.500000 0.500000 4.107041 33.728265 0.555115 0.098667
6233.552000 6233.550000 0.500000 4.101006 33.432900 0.553596 0.098108
6236.616000 6236.610000 0.500000 4.093687 33.137734 0.552737 0.097454
6239.691000 6239.690000 0.500000 4.087352 32.846943 0.551370 0.097069
6242.791000 6242.790000 0.500000 4.080568 32.532893 0.549820 0.096834
6245.911000 6245.910000 0.500000 4.073765 32.226923 0.548370 0.096553
6249.050000 6249.050000 0.500000 4.066998 31.901657 0.546523 0.096743
6252.199000 6252.200000 0.500000 4.060177 31.590968 0.544900 0.097497
6255.379000 6255.380000 0.500000 4.052269 31.279133 0.543807 0.098640
6258.570000 6258.570000 0.500000 4.044988 30.956834 0.542141 0.099403
6261.791000 6261.790000 0.500000 4.038216 30.637902 0.540209 0.099792
6265.021000 6265.020000 0.500000 4.031121 30.308505 0.538205 0.099968
6268.273000 6268.270000 0.500000 4.024026 29.971725 0.536014 0.099318
6271.554000 6271.550000 0.500000 4.016670 29.639945 0.534000 0.099345
6274.843000 6274.840000 0.500000 4.009686 29.311938 0.531796 0.099408
6278.153000 6278.150000 0.500000 4.002800 28.985474 0.529505 0.098893
6281.474000 6281.470000 0.500000 3.995584 28.647850 0.527133 0.098951
6284.823000 6284.820000 0.500000 3.988280 28.307660 0.524695 0.098831
6288.190000 6288.190000 0.500000 3.980844 27.973667 0.522368 0.098656
6291.570000 6291.570000 0.500000 3.973539 27.643983 0.519992 0.098198
6294.982000 6294.980000 0.500000 3.966224 27.314193 0.517570 0.097720
6298.400000 6298.400000 0.500000 3.958591 26.980432 0.515157 0.098148
6301.853000 6301.850000 0.500000 3.951211 26.645683 0.512545 0.097881
6305.315000 6305.310000 0.500000 3.943021 26.318317 0.510410 0.097805
6308.794000 6308.790000 0.500000 3.936385 25.986840 0.507355 0.097142
6312.293000 6312.290000 0.500000 3.928749 25.662507 0.504860 0.097056
6315.814000 6315.810000 0.500000 3.921423 25.337887 0.502135 0.096726
6319.354000 6319.350000 0.500000 3.913079 25.012053 0.499819 0.096239
6322.907000 6322.900000 0.500000 3.905916 24.691718 0.496988 0.095544
6326.487000 6326.480000 0.500000 3.898109 24.377470 0.494495 0.095053
6330.085000 6330.080000 0.500000 3.890511 24.066422 0.491919 0.094655
6333.698000 6333.690000 0.500000 3.882594 23.752165 0.489357 0.094221
6337.327000 6337.320000 0.500000 3.874539 23.439400 0.486814 0.094030
6340.985000 6340.980000 0.500000 3.867156 23.131936 0.483981 0.093861
6344.656000 6344.650000 0.500000 3.859959 22.828307 0.481083 0.093769
6348.349000 6348.340000 0.500000 3.851938 22.528315 0.478587 0.093568
6352.058000 6352.050000 0.500000 3.844057 22.233161 0.476059 0.093437
6355.787000 6355.780000 0.500000 3.836538 21.939913 0.473326 0.093475
6359.532000 6359.520000 0.500000 3.829319 21.645803 0.470360 0.093150
6363.305000 6363.290000 0.500000 3.821001 21.356471 0.467952 0.093121
6367.095000 6367.080000 0.500000 3.814349 21.070813 0.464776 0.093169
6370.894000 6370.880000 0.500000 3.806577 20.793163 0.462231 0.093178
6374.731000 6374.710000 0.500000 3.798664 20.514358 0.459657 0.092603
6378.573000 6378.550000 0.500000 3.791835 20.243238 0.456700 0.092520
6382.419000 6382.410000 0.500000 3.783671 19.973579 0.454288 0.091983
6386.302000 6386.290000 0.500000 3.776778 19.707668 0.451351 0.091635
6390.207000 6390.190000 0.500000 3.768487 19.438788 0.448897 0.091385
6394.141000 6394.110000 0.500000 3.760899 19.176527 0.446223 0.091164
6398.060000 6398.050000 0.500000 3.753384 18.923803 0.443651 0.090667
6402.026000 6402.010000 0.500000 3.745655 18.674816 0.441206 0.090728
6405.962000 6405.980000 0.500000 3.737113 18.429398 0.439110 0.090434
6410.011000 6409.980000 0.500000 3.729544 18.187302 0.436681 0.089863
6414.021000 6413.990000 0.500000 3.720744 17.955656 0.434919 0.089900
6418.061000 6418.030000 0.500000 3.713189 17.727283 0.432648 0.089877
6422.098000 6422.080000 0.500000 3.706052 17.500272 0.430149 0.089398
6426.178000 6426.150000 0.500000 3.697993 17.269866 0.427933 0.089340
6430.270000 6430.240000 0.500000 3.689364 17.042651 0.425961 0.088759
6434.378000 6434.350000 0.500000 3.680912 16.818406 0.423914 0.088865
6438.492000 6438.480000 0.500000 3.672954 16.609777 0.421993 0.088511
6442.645000 6442.630000 0.500000 3.664141 16.403138 0.420432 0.088317
6446.814000 6446.790000 0.500000 3.656457 16.198399 0.418391 0.088211
6451.009000 6450.980000 0.500000 3.649000 16.009573 0.416609 0.088271
6455.195000 6455.180000 0.500000 3.641007 15.820979 0.414993 0.088216
6459.402000 6459.410000 0.500000 3.632983 15.570190 0.411686 0.087949
6463.642000 6463.650000 0.500000 3.624336 15.316995 0.408504 0.087418
6467.927000 6467.910000 0.500000 3.616310 15.236525 0.409649 0.087852
6472.168000 6472.190000 0.500000 3.608655 15.067042 0.408188 0.087843
6476.514000 6476.490000 0.500000 3.600815 14.893857 0.406697 0.088196
6480.792000 6480.810000 0.500000 3.592210 14.724181 0.405504 0.087946
6485.143000 6485.150000 0.500000 3.583723 14.562555 0.404478 0.088212
6489.511000 6489.510000 0.500000 3.574970 14.390508 0.403211 0.088124
6493.880000 6493.890000 0.500000 3.566727 14.241441 0.402331 0.088184
6498.253000 6498.280000 0.500000 3.558694 14.085587 0.401117 0.088125
6502.668000 6502.700000 0.500000 3.548937 13.934008 0.400682 0.088164
6507.105000 6507.130000 0.500000 3.542148 13.781785 0.399027 0.087924
6511.592000 6511.580000 0.500000 3.534271 13.630985 0.397801 0.088039
6516.065000 6516.050000 0.500000 3.525810 13.481911 0.396786 0.088237
6520.522000 6520.540000 0.500000 3.516756 13.344675 0.396295 0.088323
6525.026000 6525.050000 0.500000 3.509274 13.201130 0.394973 0.088730
6529.555000 6529.580000 0.500000 3.500736 13.060462 0.394117 0.088657
6534.099000 6534.130000 0.500000 3.491933 12.925489 0.393476 0.088446
6538.677000 6538.700000 0.500000 3.484335 12.788641 0.392293 0.088617
6543.256000 6543.280000 0.500000 3.475758 12.656309 0.391574 0.088801
6547.903000 6547.890000 0.500000 3.467060 12.524785 0.390909 0.088554
6552.481000 6552.510000 0.500000 3.458420 12.393260 0.390139 0.088821
6557.137000 6557.160000 0.500000 3.450356 12.266984 0.389287 0.088643
6561.798000 6561.820000 0.500000 3.442854 12.138439 0.388117 0.088808
6566.474000 6566.500000 0.500000 3.433085 12.019984 0.388092 0.088899
6571.176000 6571.200000 0.500000 3.425375 11.901728 0.387246 0.089387
6575.896000 6575.920000 0.500000 3.416826 11.785156 0.386751 0.089540
6580.669000 6580.660000 0.500000 3.408407 11.671963 0.386293 0.089726
6585.385000 6585.410000 0.500000 3.399094 11.556793 0.386032 0.089909
6590.174000 6590.190000 0.500000 3.391310 11.439282 0.385109 0.089665
6594.959000 6594.990000 0.500000 3.382446 11.334005 0.384951 0.090138
6599.801000 6599.800000 0.500000 3.373644 11.228826 0.384767 0.090581
6604.632000 6604.630000 0.500000 3.364460 11.118404 0.384499 0.090499
6609.466000 6609.490000 0.500000 3.356618 11.011635 0.383793 0.090817
6614.334000 6614.360000 0.500000 3.348083 10.904339 0.383309 0.090963
6619.233000 6619.250000 0.500000 3.339158 10.801238 0.383093 0.090975
6624.139000 6624.160000 0.500000 3.330323 10.700403 0.382881 0.091232
6629.067000 6629.090000 0.500000 3.322440 10.594595 0.382096 0.091430
6634.013000 6634.030000 0.500000 3.312721 10.497868 0.382310 0.091676
6638.987000 6639.000000 0.500000 3.304505 10.398551 0.381819 0.091933
6643.966000 6643.990000 0.500000 3.296072 10.300136 0.381405 0.092077
6648.973000 6648.990000 0.500000 3.286839 10.204702 0.381381 0.092484
6654.001000 6654.020000 0.500000 3.277832 10.111670 0.381317 0.092744
6659.036000 6659.060000 0.500000 3.269939 10.013544 0.380610 0.093063
6664.101000 6664.120000 0.500000 3.261164 9.917280 0.380275 0.093172
6669.187000 6669.200000 0.500000 3.253148 9.823253 0.379704 0.093283
6674.277000 6674.300000 0.500000 3.243325 9.733153 0.379929 0.093459
6679.404000 6679.420000 0.500000 3.234677 9.640261 0.379579 0.093953
6684.535000 6684.560000 0.500000 3.226227 9.548155 0.379132 0.093830
6689.698000 6689.720000 0.500000 3.216796 9.458175 0.379122 0.094414
6694.881000 6694.900000 0.500000 3.207276 9.371189 0.379228 0.094563
6700.060000 6700.090000 0.500000 3.198100 9.281269 0.379041 0.094732
6705.282000 6705.310000 0.500000 3.190253 9.191696 0.378347 0.094760
6710.518000 6710.540000 0.500000 3.182235 9.101690 0.377662 0.094723
6715.762000 6715.790000 0.500000 3.172770 9.017477 0.377718 0.095090
6721.042000 6721.060000 0.500000 3.164593 8.931006 0.377178 0.095158
6726.332000 6726.350000 0.500000 3.154519 8.842721 0.377225 0.095594
6731.640000 6731.660000 0.500000 3.146333 8.758094 0.376687 0.096018
6736.962000 6736.990000 0.500000 3.137393 8.676824 0.376535 0.096330
6742.316000 6742.340000 0.500000 3.128165 8.592714 0.376341 0.096580
6747.684000 6747.710000 0.500000 3.119967 8.507242 0.375667 0.096650
6753.066000 6753.090000 0.500000 3.111275 8.424942 0.375279 0.096857
6758.477000 6758.500000 0.500000 3.102243 8.345035 0.375094 0.097265
6763.897000 6763.920000 0.500000 3.094187 8.261724 0.374353 0.096984
6769.339000 6769.370000 0.500000 3.084935 8.184919 0.374311 0.097598
6774.804000 6774.830000 0.500000 3.075672 8.105779 0.374157 0.097847
6780.286000 6780.310000 0.500000 3.067565 8.027308 0.373543 0.097895
6785.782000 6785.810000 0.500000 3.058404 7.947083 0.373211 0.098347
6791.310000 6791.330000 0.500000 3.048488 7.853596 0.372502 0.098410
6796.853000 6796.870000 0.500000 3.039862 7.798991 0.373119 0.098601
6802.394000 6802.420000 0.500000 3.031286 7.729412 0.372976 0.099282
6807.976000 6808.000000 0.500000 3.022482 7.664259 0.373094 0.099710
6813.577000 6813.600000 0.500000 3.013298 7.470331 0.367007 0.097984
6819.184000 6819.210000 0.500000 3.004067 7.479463 0.370861 0.099484
6824.848000 6824.850000 0.500000 2.996385 7.311907 0.365366 0.098314
6830.482000 6830.500000 0.500000 2.986803 7.185085 0.362476 0.097701
6836.136000 6836.170000 0.500000 2.977975 7.344008 0.373772 0.101117
6841.839000 6841.860000 0.500000 2.970158 7.134245 0.365958 0.099513
