# XDI/1.0 BlueSky/1.5.3
# Beamline.name: 6BM
# Beamline.xray_source: NSLS-II three-pole wiggler
# Beamline.collimation: paraboloid mirror, 5 nm Rh on 30 nm Pt
# Beamline.focusing: not in use
# Beamline.harmonic_rejection: flat mirror, Si stripe, pitch = 7.0 mrad relative to beam
# Detector.i0: 10 cm N2
# Detector.i1: 25 cm N2
# Detector.i2: 25 cm N2
# Element.symbol: Cr
# Element.edge: K
# Facility.name: NSLS-II
# Facility.energy: 3.0
# Facility.current: 400.1
# Facility.mode: top-off
# Facility.gup: 305832
# Facility.saf: 305669
# Facility.cycle: 2020-1
# Mono.name: Si(111)
# Mono.d_spacing: 3.1353241
# Mono.encoder_resolution: 0.0000050 deg/ct
# Mono.angle_offset: 16.0581090 deg
# Mono.scan_mode: fixed exit
# Mono.scan_type: step
# Mono.direction: forward in energy
# Sample.name: K2CrO4
# Sample.prep: Powder in polyethylene glycol pellet
# Sample.x_position: -3.945 mm
# Sample.y_position: 103.894 mm
# Scan.experimenters: Neil Hyatt, Martin Stennett, Dan Austin, Seb Lawson
# Scan.edge_energy: 5989.200000000001
# Scan.start_time: 2020-03-02T23:18:07
# Scan.end_time: 2020-03-03T03:41:44
# Scan.transient_id: 22521
# Scan.uid: f8c83910-4adb-4207-a465-9ff0ff0e9cd2
# Scan.plot_hint: (DTC1 + DTC2 + DTC3 + DTC4) / I0  --  ($8+$9+$10+$11) / $5
# Scan.sequence: merge of 2 scans
# Column.1: energy eV
# Column.2: requested_energy eV
# Column.3: measurement_time seconds
# Column.4: mutrans
# Column.5: i0
# Column.6: itrans
# Column.7: irefer
# /////
#  -200  -30  -10 30 14k
# -----
# energy   requested_energy   measurement_time   mutrans   i0   itrans   irefer
5789.198000 5789.200000 1.000000 0.013947 83.283317 6.873608 1.093140
5799.207000 5799.200000 1.000000 0.007422 83.317790 6.984501 1.120928
5809.222000 5809.200000 1.000000 0.032203 83.309934 7.092089 1.148710
5819.213000 5819.200000 1.000000 0.018128 83.230705 7.193532 1.173646
5829.210000 5829.200000 1.000000 0.012874 83.327274 7.311326 1.204182
5839.209000 5839.200000 1.000000 0.007460 83.256113 7.414406 1.228570
5849.208000 5849.200000 1.000000 0.037013 83.133926 7.515439 1.256537
5859.207000 5859.200000 1.000000 0.042435 82.954527 7.610227 1.282443
5869.207000 5869.200000 1.000000 0.033651 81.267848 7.566477 1.285461
5879.207000 5879.200000 1.000000 0.024969 83.446788 7.881159 1.350839
5889.204000 5889.200000 1.000000 0.018981 83.071888 7.962244 1.376566
5899.204000 5899.200000 1.000000 0.027041 82.761572 8.044992 1.401464
5909.181000 5909.200000 1.000000 0.032813 82.352526 8.121716 1.426096
5919.191000 5919.200000 1.000000 0.041316 63.937890 6.395324 1.127489
5929.196000 5929.200000 1.000000 0.031491 80.755514 8.190799 1.460264
5939.201000 5939.200000 1.000000 0.024740 81.501383 8.380529 1.506710
5949.202000 5949.200000 1.000000 0.050225 82.906549 8.641899 1.566804
5959.203000 5959.200000 1.000000 0.037962 82.281421 8.693710 1.588107
5961.190000 5961.200000 1.000000 0.024338 82.175960 8.705099 1.590645
5963.192000 5963.200000 1.000000 0.020521 82.048502 8.716684 1.596374
5965.194000 5965.200000 1.000000 0.012440 81.945559 8.728870 1.602331
5967.192000 5967.200000 1.000000 0.040811 81.854121 8.741371 1.606214
5969.195000 5969.200000 1.000000 0.038002 81.756050 8.752943 1.611369
5971.199000 5971.200000 1.000000 0.024773 81.642103 8.763773 1.615332
5973.203000 5973.200000 1.000000 0.025808 81.529505 8.773916 1.618184
5975.194000 5975.200000 1.000000 0.037582 81.409101 8.784790 1.623511
5977.201000 5977.200000 1.000000 0.038191 81.301792 8.793608 1.625818
5979.206000 5979.200000 1.000000 0.062941 81.180041 8.801808 1.629064
5979.440000 5979.450000 1.000000 0.037025 81.117668 8.797624 1.628975
5979.690000 5979.700000 1.000000 0.026233 81.149059 8.803150 1.629229
5979.938000 5979.950000 1.000000 0.045733 81.091404 8.798533 1.629232
5980.191000 5980.200000 1.000000 0.018606 81.058652 8.798887 1.629948
5980.441000 5980.450000 1.000000 0.007983 81.043981 8.799667 1.629083
5980.690000 5980.700000 1.000000 0.038300 81.016556 8.799035 1.630615
5980.943000 5980.950000 1.000000 0.025785 81.019502 8.801946 1.631462
5981.193000 5981.200000 1.000000 0.038186 80.955433 8.796761 1.629203
5981.444000 5981.450000 1.000000 0.021693 80.967700 8.799753 1.630995
5981.693000 5981.700000 1.000000 0.037247 80.914844 8.797772 1.632342
5981.943000 5981.950000 1.000000 0.072286 81.035846 8.813422 1.633800
5982.192000 5982.200000 1.000000 0.027487 81.006512 8.812173 1.634343
5982.443000 5982.450000 1.000000 0.039268 80.985693 8.810693 1.634073
5982.693000 5982.700000 1.000000 0.040279 80.947622 8.808627 1.632403
5982.945000 5982.950000 1.000000 0.031639 80.911254 8.808217 1.632896
5983.193000 5983.200000 1.000000 0.019700 80.896271 8.809386 1.631820
5983.446000 5983.450000 1.000000 0.019972 80.878728 8.808559 1.633448
5983.697000 5983.700000 1.000000 0.018695 80.847201 8.807474 1.634757
5983.949000 5983.950000 1.000000 0.057560 80.776977 8.802612 1.632189
5984.199000 5984.200000 1.000000 0.013804 80.741639 8.798869 1.631436
5984.451000 5984.450000 1.000000 0.019939 80.723214 8.798055 1.632256
5984.702000 5984.700000 1.000000 0.048428 80.698626 8.797368 1.630202
5984.951000 5984.950000 1.000000 0.037341 80.630934 8.790756 1.630209
5985.199000 5985.200000 1.000000 0.019789 80.570526 8.786005 1.628548
5985.448000 5985.450000 1.000000 0.050542 80.517216 8.782383 1.628226
5985.697000 5985.700000 1.000000 0.044324 80.468898 8.776874 1.625823
5985.947000 5985.950000 1.000000 0.057892 80.398677 8.769247 1.623599
5986.196000 5986.200000 1.000000 0.020844 80.356897 8.766219 1.624462
5986.445000 5986.450000 1.000000 0.032236 80.277199 8.759038 1.620742
5986.699000 5986.700000 1.000000 0.013617 80.207558 8.751810 1.618770
5986.950000 5986.950000 1.000000 0.048073 80.109874 8.740380 1.618593
5987.201000 5987.200000 1.000000 0.025954 80.031841 8.731766 1.616147
5987.450000 5987.450000 1.000000 0.053640 79.931485 8.719502 1.610931
5987.701000 5987.700000 1.000000 0.012531 79.806460 8.703681 1.604627
5987.949000 5987.950000 1.000000 0.018890 79.663341 8.687603 1.599766
5988.199000 5988.200000 1.000000 0.012665 79.501961 8.667347 1.594625
5988.445000 5988.450000 1.000000 0.047329 79.285512 8.641055 1.578259
5988.698000 5988.700000 1.000000 0.058647 79.057816 8.611569 1.565964
5988.949000 5988.950000 1.000000 0.032921 78.781059 8.576950 1.546884
5989.201000 5989.200000 1.000000 0.059858 78.415474 8.532213 1.520824
5989.451000 5989.450000 1.000000 0.046052 77.926802 8.469937 1.492717
5989.703000 5989.700000 1.000000 0.038722 77.281487 8.389095 1.461694
5989.953000 5989.950000 1.000000 0.055485 76.322822 8.271373 1.429916
5990.207000 5990.200000 1.000000 0.006679 74.930285 8.103708 1.390552
5990.454000 5990.450000 1.000000 0.049686 72.825887 7.857711 1.341140
5990.702000 5990.700000 1.000000 0.036561 69.549744 7.479358 1.273061
5990.950000 5990.950000 1.000000 0.025181 65.278386 6.989758 1.181821
5991.198000 5991.200000 1.000000 0.027218 61.230545 6.512804 1.093270
5991.448000 5991.450000 1.000000 0.038580 59.186835 6.230560 1.038099
5991.699000 5991.700000 1.000000 0.000000 60.125582 6.236607 1.030978
5991.951000 5991.950000 1.000000 0.051183 64.131308 6.521756 1.066502
5992.201000 5992.200000 1.000000 0.006990 70.587053 6.989316 1.138629
5992.452000 5992.450000 1.000000 0.054800 76.382793 7.263307 1.183255
5992.703000 5992.700000 1.000000 0.019321 79.545342 7.114981 1.158467
5992.952000 5992.950000 1.000000 0.057180 80.808837 6.683572 1.083998
5993.203000 5993.200000 1.000000 0.050827 81.292476 6.250537 1.011239
5993.453000 5993.450000 1.000000 0.024490 81.513547 6.051624 0.972366
5993.700000 5993.700000 1.000000 0.042921 81.592039 6.188238 0.988110
5993.950000 5993.950000 1.000000 0.012297 81.614006 6.613356 1.053104
5994.200000 5994.200000 1.000000 0.044525 81.625844 7.155780 1.139881
5994.448000 5994.450000 1.000000 0.037680 81.654601 7.654805 1.219794
5994.702000 5994.700000 1.000000 0.039357 81.726349 8.030930 1.278672
5994.952000 5994.950000 1.000000 0.050139 81.695764 8.265099 1.317096
5995.205000 5995.200000 1.000000 0.018660 81.665034 8.418669 1.344195
5995.453000 5995.450000 1.000000 0.043104 81.629002 8.516166 1.359955
5995.702000 5995.700000 1.000000 0.024614 81.588134 8.582641 1.371430
5995.952000 5995.950000 1.000000 0.028057 81.570393 8.631816 1.379289
5996.199000 5996.200000 1.000000 0.006147 81.522200 8.665184 1.384705
5996.452000 5996.450000 1.000000 0.032317 81.478848 8.688154 1.387209
5996.700000 5996.700000 1.000000 0.039516 81.458997 8.703817 1.391619
5996.950000 5996.950000 1.000000 0.049813 81.416648 8.707211 1.384778
5997.202000 5997.200000 1.000000 0.030897 81.385480 8.704263 1.376758
5997.450000 5997.450000 1.000000 0.062228 81.360810 8.693851 1.367205
5997.705000 5997.700000 1.000000 0.024773 81.321069 8.678516 1.355229
5997.954000 5997.950000 1.000000 0.063938 81.277412 8.659892 1.343387
5998.201000 5998.200000 1.000000 0.026413 81.267506 8.640465 1.329200
5998.452000 5998.450000 1.000000 0.038733 81.217755 8.609806 1.315718
5998.699000 5998.700000 1.000000 0.025486 81.180961 8.572837 1.298884
5998.948000 5998.950000 1.000000 0.038235 81.147517 8.529920 1.282085
5999.200000 5999.200000 1.000000 0.026144 81.134721 8.483393 1.265090
5999.449000 5999.450000 1.000000 0.046475 81.105382 8.436596 1.250752
5999.701000 5999.700000 1.000000 0.059583 81.082613 8.394141 1.233782
5999.952000 5999.950000 1.000000 0.037029 81.055391 8.356043 1.220277
6000.205000 6000.200000 1.000000 0.056507 81.038586 8.324331 1.207519
6000.456000 6000.450000 1.000000 0.049862 81.031792 8.300570 1.199455
6000.702000 6000.700000 1.000000 0.031624 81.005730 8.284206 1.188483
6000.951000 6000.950000 1.000000 0.037611 81.001638 8.278845 1.177841
6001.198000 6001.200000 1.000000 0.070138 80.955824 8.279219 1.175187
6001.451000 6001.450000 1.000000 0.039245 80.962009 8.291558 1.172221
6001.698000 6001.700000 1.000000 0.050767 80.928952 8.305844 1.169675
6001.950000 6001.950000 1.000000 0.031187 80.905912 8.320495 1.166916
6002.200000 6002.200000 1.000000 0.057878 80.876485 8.331758 1.164487
6002.453000 6002.450000 1.000000 0.059301 80.883083 8.341595 1.161353
6002.706000 6002.700000 1.000000 0.047511 80.857838 8.346350 1.158279
6002.953000 6002.950000 1.000000 0.032187 80.835291 8.347568 1.149841
6003.204000 6003.200000 1.000000 0.038136 80.813232 8.344159 1.149632
6003.452000 6003.450000 1.000000 0.020386 80.803933 8.337726 1.143684
6003.700000 6003.700000 1.000000 0.064162 80.781260 8.324296 1.138439
6003.948000 6003.950000 1.000000 0.057090 80.770217 8.306833 1.134671
6004.200000 6004.200000 1.000000 0.030966 80.823478 8.288600 1.129080
6004.448000 6004.450000 1.000000 0.033249 80.866899 8.265543 1.119724
6004.700000 6004.700000 1.000000 0.045422 80.851382 8.230827 1.113537
6004.953000 6004.950000 1.000000 0.019713 80.812379 8.190185 1.106063
6005.204000 6005.200000 1.000000 0.018737 80.808122 8.146092 1.094181
6005.453000 6005.450000 1.000000 0.050901 80.803626 8.093267 1.085784
6005.704000 6005.700000 1.000000 0.026160 80.784968 8.028004 1.070350
6005.951000 6005.950000 1.000000 0.073323 80.777288 7.949529 1.059881
6006.199000 6006.200000 1.000000 0.066055 80.729429 7.846905 1.041341
6006.449000 6006.450000 1.000000 0.064522 80.733119 7.734031 1.023621
6006.701000 6006.700000 1.000000 0.031081 80.698534 7.609850 1.004354
6006.952000 6006.950000 1.000000 0.030993 80.676260 7.481061 0.984453
6007.200000 6007.200000 1.000000 0.049731 80.663469 7.354874 0.965293
6007.452000 6007.450000 1.000000 0.025751 80.671165 7.232780 0.946381
6007.703000 6007.700000 1.000000 0.038227 80.642879 7.115453 0.927790
6007.953000 6007.950000 1.000000 0.031061 80.618488 7.011690 0.909736
6008.205000 6008.200000 1.000000 0.019817 80.595226 6.921307 0.895885
6008.452000 6008.450000 1.000000 0.084444 80.572979 6.845877 0.881842
6008.700000 6008.700000 1.000000 0.063696 80.574337 6.782400 0.873013
6008.949000 6008.950000 1.000000 0.012424 80.577488 6.729058 0.864327
6009.200000 6009.200000 1.000000 0.061383 80.558733 6.683672 0.854217
6009.450000 6009.450000 1.000000 0.044943 80.545752 6.649014 0.848088
6009.703000 6009.700000 1.000000 0.064010 80.524842 6.622712 0.847490
6009.956000 6009.950000 1.000000 0.049760 80.500878 6.603641 0.844075
6010.205000 6010.200000 1.000000 0.051628 80.497161 6.590697 0.845998
6010.454000 6010.450000 1.000000 0.045618 80.472179 6.578951 0.847104
6010.704000 6010.700000 1.000000 0.044898 80.463023 6.572003 0.850933
6010.951000 6010.950000 1.000000 0.021062 80.457775 6.567101 0.854912
6011.199000 6011.200000 1.000000 0.043486 80.439527 6.564159 0.857534
6011.451000 6011.450000 1.000000 0.044764 80.425952 6.565081 0.861733
6011.702000 6011.700000 1.000000 0.025685 80.402559 6.567569 0.867029
6011.951000 6011.950000 1.000000 0.034003 80.378903 6.572373 0.871737
6012.201000 6012.200000 1.000000 0.047338 80.368350 6.581953 0.877585
6012.456000 6012.450000 1.000000 0.025587 80.363537 6.592978 0.884974
6012.701000 6012.700000 1.000000 0.044236 80.345583 6.602524 0.889164
6012.953000 6012.950000 1.000000 0.067371 80.328669 6.610927 0.891372
6013.202000 6013.200000 1.000000 0.032677 80.323808 6.618952 0.899223
6013.450000 6013.450000 1.000000 0.024903 80.314242 6.622296 0.900503
6013.704000 6013.700000 1.000000 0.037756 80.298916 6.623425 0.902892
6013.949000 6013.950000 1.000000 0.051424 80.276517 6.620664 0.903207
6014.201000 6014.200000 1.000000 0.050744 80.263701 6.615347 0.903598
6014.453000 6014.450000 1.000000 0.025562 80.262925 6.609795 0.904302
6014.702000 6014.700000 1.000000 0.083639 80.237824 6.599117 0.899628
6014.955000 6014.950000 1.000000 0.050327 80.223902 6.586090 0.901309
6015.204000 6015.200000 1.000000 0.051501 80.201274 6.569460 0.897427
6015.453000 6015.450000 1.000000 0.089135 80.184206 6.549525 0.894260
6015.702000 6015.700000 1.000000 0.051118 80.168736 6.526808 0.889758
6015.950000 6015.950000 1.000000 0.031856 80.160727 6.505912 0.886439
6016.198000 6016.200000 1.000000 0.018682 80.152967 6.484727 0.881034
6016.450000 6016.450000 1.000000 0.057492 80.147598 6.463604 0.878587
6016.700000 6016.700000 1.000000 0.025236 80.092075 6.439955 0.871772
6016.951000 6016.950000 1.000000 0.051331 80.205822 6.434218 0.868370
6017.204000 6017.200000 1.000000 0.006354 80.210059 6.422909 0.865462
6017.455000 6017.450000 1.000000 0.012528 80.188305 6.412222 0.862160
6017.704000 6017.700000 1.000000 0.057896 80.169532 6.403814 0.859651
6017.955000 6017.950000 1.000000 0.012509 80.156455 6.395777 0.855939
6018.204000 6018.200000 1.000000 0.057575 80.158068 6.392359 0.855806
6018.454000 6018.450000 1.000000 0.067080 80.148499 6.385406 0.852810
6018.699000 6018.700000 1.000000 0.026252 80.127175 6.376370 0.850693
6018.950000 6018.950000 1.000000 0.039567 80.107239 6.366886 0.847274
6019.200000 6019.200000 1.000000 0.059001 80.105115 6.357636 0.846256
6020.300000 6020.280000 1.000000 0.025279 80.039749 6.299668 0.838102
6021.379000 6021.380000 1.000000 0.032087 79.987132 6.242056 0.835018
6022.496000 6022.490000 1.000000 0.031272 79.908341 6.219675 0.837389
6023.640000 6023.630000 1.000000 0.051910 79.873490 6.228767 0.838423
6024.790000 6024.780000 1.000000 0.056786 79.802104 6.235304 0.841601
6025.964000 6025.960000 1.000000 0.054816 79.749645 6.234546 0.837421
6027.159000 6027.150000 1.000000 0.058076 79.668558 6.217845 0.825575
6028.365000 6028.360000 1.000000 0.033431 79.604274 6.206359 0.822118
6029.600000 6029.590000 1.000000 0.018806 79.584824 6.203431 0.818949
6030.845000 6030.840000 1.000000 0.039955 79.516536 6.196059 0.815854
6032.118000 6032.110000 1.000000 0.040339 79.432494 6.185055 0.815900
6033.404000 6033.400000 1.000000 0.031672 79.383048 6.163435 0.811168
6034.716000 6034.710000 1.000000 0.051525 79.294197 6.119104 0.805833
6036.035000 6036.030000 1.000000 0.051948 79.239942 6.072958 0.801595
6037.389000 6037.380000 1.000000 0.039690 79.162540 6.032953 0.793842
6038.745000 6038.740000 1.000000 0.045394 79.104024 6.017596 0.788767
6040.135000 6040.130000 1.000000 0.040054 79.012147 6.034169 0.791715
6041.534000 6041.530000 1.000000 0.052483 78.955071 6.088733 0.797992
6042.956000 6042.950000 1.000000 0.044489 78.890564 6.165577 0.814167
6044.396000 6044.390000 1.000000 0.059827 78.794008 6.254857 0.829596
6045.854000 6045.850000 1.000000 0.053914 78.742266 6.351966 0.842699
6047.335000 6047.330000 1.000000 0.044872 78.678812 6.413716 0.855308
6048.836000 6048.830000 1.000000 0.012875 78.574828 6.447031 0.866202
6050.343000 6050.340000 1.000000 0.045170 78.537111 6.500955 0.880338
6051.886000 6051.880000 1.000000 0.034107 78.548872 6.555921 0.896278
6053.444000 6053.440000 1.000000 0.044774 78.441570 6.588622 0.908973
6055.015000 6055.010000 1.000000 0.091640 78.321834 6.614860 0.920381
6056.606000 6056.600000 1.000000 0.053490 78.164702 6.645862 0.929583
6058.215000 6058.210000 1.000000 0.065280 78.034792 6.684130 0.941833
6059.860000 6059.850000 1.000000 0.048293 77.904871 6.721625 0.949728
6061.509000 6061.500000 1.000000 0.051321 77.760601 6.754239 0.956447
6063.175000 6063.170000 1.000000 0.045542 77.658267 6.786718 0.957429
6064.859000 6064.850000 1.000000 0.065238 77.564880 6.813606 0.955558
6066.566000 6066.560000 1.000000 0.067384 77.455576 6.829980 0.949860
6068.295000 6068.290000 1.000000 0.046588 77.349941 6.836465 0.942472
6070.035000 6070.030000 1.000000 0.060467 77.246901 6.835805 0.934010
6071.807000 6071.800000 1.000000 0.039634 77.139776 6.828007 0.930375
6073.586000 6073.580000 1.000000 0.060011 77.060384 6.820109 0.933619
6075.389000 6075.380000 1.000000 0.055824 76.932765 6.807853 0.941207
6077.204000 6077.200000 1.000000 0.053598 76.832518 6.797322 0.949036
6079.045000 6079.040000 1.000000 0.048252 76.704646 6.787614 0.959874
6080.909000 6080.900000 1.000000 0.034820 76.581401 6.781043 0.970136
6082.794000 6082.780000 1.000000 0.020349 76.452180 6.777708 0.979974
6084.684000 6084.680000 1.000000 0.061298 76.316865 6.778067 0.986429
6086.608000 6086.600000 1.000000 0.053397 76.200188 6.784855 0.986444
6088.550000 6088.530000 1.000000 0.053453 76.036416 6.790055 0.975290
6090.499000 6090.490000 1.000000 0.033592 75.927147 6.798627 0.966107
6092.474000 6092.460000 1.000000 0.069595 75.781884 6.799693 0.950378
6094.467000 6094.460000 1.000000 0.047764 75.634527 6.796729 0.936385
6096.474000 6096.470000 1.000000 0.074915 75.449739 6.788528 0.922932
6098.528000 6098.500000 1.000000 0.022518 75.313036 6.780063 0.910904
6100.558000 6100.550000 1.000000 0.048919 75.160107 6.770523 0.912639
6102.629000 6102.620000 1.000000 0.033335 75.011575 6.757910 0.916871
6104.717000 6104.710000 1.000000 0.075324 74.812220 6.741205 0.928659
6106.812000 6106.810000 1.000000 0.033517 74.657566 6.729464 0.943666
6108.951000 6108.940000 1.000000 0.053505 74.491730 6.719721 0.958913
6111.120000 6111.090000 1.000000 0.084438 74.318425 6.709715 0.972411
6113.255000 6113.250000 1.000000 0.033817 74.122270 6.694807 0.979902
6115.443000 6115.430000 1.000000 0.055968 73.929701 6.680312 0.986123
6117.646000 6117.640000 1.000000 0.020445 73.726239 6.663335 0.985248
6119.875000 6119.860000 1.000000 0.054830 73.540721 6.648882 0.982343
6122.114000 6122.100000 1.000000 0.042867 73.302975 6.635821 0.979653
6124.372000 6124.360000 1.000000 0.049548 73.117713 6.634908 0.978883
6126.633000 6126.640000 1.000000 0.050340 72.902951 6.636755 0.982946
6128.945000 6128.940000 1.000000 0.057118 72.672514 6.641838 0.989196
6131.243000 6131.250000 1.000000 0.081104 72.415957 6.650859 0.999502
6133.603000 6133.590000 1.000000 0.022781 72.170487 6.663144 1.003169
6135.927000 6135.940000 1.000000 0.020899 71.926521 6.676075 1.008209
6138.308000 6138.320000 1.000000 0.099062 71.663530 6.687828 1.011535
6140.720000 6140.710000 1.000000 0.035259 71.389119 6.697801 1.012492
6143.131000 6143.120000 1.000000 0.035196 71.096877 6.704563 1.008347
6145.537000 6145.550000 1.000000 0.036402 70.781185 6.708080 1.012807
6148.002000 6148.000000 1.000000 0.096190 70.501532 6.712827 1.007872
6150.464000 6150.470000 1.000000 0.079794 70.247916 6.721739 1.006018
6152.973000 6152.960000 1.000000 0.057928 69.861030 6.715193 1.006305
6155.464000 6155.470000 1.000000 0.028828 69.377450 6.698831 1.002313
6157.979000 6157.990000 1.000000 0.044340 68.655752 6.657849 0.994034
6160.532000 6160.540000 1.000000 0.069172 67.226027 6.547204 0.973121
6163.090000 6163.100000 1.000000 0.031882 65.342626 6.390647 0.943548
6165.676000 6165.690000 1.000000 0.057441 64.460252 6.331486 0.931239
6168.279000 6168.290000 1.000000 0.076488 68.889344 6.794895 1.003074
6170.895000 6170.910000 1.000000 0.061072 68.527371 6.790928 1.009110
6173.538000 6173.550000 1.000000 0.062060 68.029259 6.771060 1.021064
6176.202000 6176.210000 1.000000 0.038975 67.575242 6.753868 1.030365
6178.879000 6178.890000 1.000000 0.069587 67.135709 6.738379 1.036634
6181.587000 6181.590000 1.000000 0.076958 66.694365 6.719887 1.043238
6184.304000 6184.310000 1.000000 0.038672 66.251271 6.700107 1.044740
6187.036000 6187.040000 1.000000 0.055295 65.808450 6.680635 1.047971
6189.792000 6189.800000 1.000000 0.049701 65.358521 6.659700 1.045719
6192.564000 6192.570000 1.000000 0.055809 64.931545 6.638653 1.045254
6195.356000 6195.370000 1.000000 0.041721 64.463464 6.611732 1.046936
6198.170000 6198.180000 1.000000 0.048327 63.986773 6.584152 1.046481
6200.994000 6201.010000 1.000000 0.043053 63.509611 6.555408 1.046044
6203.852000 6203.860000 1.000000 0.041386 63.005033 6.523954 1.044215
6206.719000 6206.730000 1.000000 0.093397 62.521592 6.495172 1.043601
6209.631000 6209.620000 1.000000 0.068714 62.023237 6.462207 1.045493
6212.508000 6212.520000 1.000000 0.024515 61.511604 6.428985 1.046375
6215.434000 6215.450000 1.000000 0.075774 61.003586 6.395663 1.044714
6218.385000 6218.400000 1.000000 0.067618 60.470992 6.360464 1.040774
6221.348000 6221.360000 1.000000 0.069363 59.946167 6.325819 1.034001
6224.323000 6224.340000 1.000000 0.077814 59.398094 6.286843 1.027608
6227.350000 6227.350000 1.000000 0.088606 58.842867 6.246758 1.015733
6230.359000 6230.370000 1.000000 0.079601 58.295068 6.209259 1.006936
6233.407000 6233.410000 1.000000 0.017407 57.749702 6.170336 0.996539
6236.484000 6236.470000 1.000000 0.063500 57.180318 6.129078 0.986454
6239.564000 6239.550000 1.000000 0.090843 56.622381 6.089574 0.978953
6242.662000 6242.650000 1.000000 0.068431 56.065511 6.050258 0.970560
6245.772000 6245.760000 1.000000 0.046103 55.488768 6.009013 0.965889
6248.911000 6248.900000 1.000000 0.074046 55.000259 5.977627 0.965257
6252.062000 6252.050000 1.000000 0.095748 54.428310 5.937961 0.969509
6255.242000 6255.230000 1.000000 0.071748 53.834239 5.895576 0.972137
6258.432000 6258.420000 1.000000 0.107612 53.249613 5.855135 0.978930
6261.635000 6261.630000 1.000000 0.076926 52.663312 5.814551 0.978236
6264.857000 6264.860000 1.000000 0.050405 52.067979 5.771849 0.974123
6268.131000 6268.120000 1.000000 0.081343 51.464220 5.730167 0.969816
6271.393000 6271.380000 1.000000 0.099117 50.868643 5.687846 0.965156
6274.679000 6274.670000 1.000000 0.093492 50.298168 5.648985 0.960963
6277.991000 6277.980000 1.000000 0.040280 49.701708 5.606690 0.957637
6281.323000 6281.310000 1.000000 0.098797 49.103231 5.563369 0.955466
6284.664000 6284.650000 1.000000 0.075579 48.496509 5.519985 0.947943
6288.031000 6288.020000 1.000000 0.010420 47.887832 5.475757 0.942484
6291.406000 6291.400000 1.000000 0.079680 47.306416 5.433998 0.936287
6294.806000 6294.800000 1.000000 0.070898 46.731893 5.392288 0.933430
6298.242000 6298.230000 1.000000 0.045181 46.134680 5.346874 0.928862
6301.680000 6301.670000 1.000000 0.067414 45.564086 5.306051 0.928004
6305.143000 6305.130000 1.000000 0.057668 44.976680 5.261594 0.920473
6308.614000 6308.600000 1.000000 0.079849 44.407469 5.217219 0.915775
6312.092000 6312.100000 1.000000 0.059776 43.837663 5.173880 0.909448
6315.603000 6315.620000 1.000000 0.082418 43.278929 5.130885 0.900415
6319.155000 6319.160000 1.000000 0.023461 42.720500 5.087850 0.894253
6322.717000 6322.710000 1.000000 0.074651 42.163472 5.044261 0.886061
6326.279000 6326.290000 1.000000 0.051267 41.613934 5.001125 0.879086
6329.872000 6329.880000 1.000000 0.078170 41.077461 4.958181 0.871735
6333.478000 6333.490000 1.000000 0.095522 40.525883 4.913647 0.865307
6337.113000 6337.120000 1.000000 0.081168 39.993519 4.870399 0.859338
6340.754000 6340.770000 1.000000 0.096158 39.470359 4.827760 0.854029
6344.429000 6344.440000 1.000000 0.108132 38.953462 4.785024 0.849934
6348.116000 6348.130000 1.000000 0.026336 38.440405 4.741516 0.845304
6351.833000 6351.840000 1.000000 0.013367 37.936320 4.699874 0.841636
6355.552000 6355.560000 1.000000 0.056921 37.449201 4.658412 0.837169
6359.305000 6359.310000 1.000000 0.098268 36.955926 4.617335 0.834742
6363.060000 6363.070000 1.000000 0.073266 36.474255 4.576370 0.832286
6366.845000 6366.860000 1.000000 0.046237 35.997423 4.536147 0.827322
6370.643000 6370.660000 1.000000 0.075138 35.538722 4.496882 0.824521
6374.465000 6374.480000 1.000000 0.091513 35.078197 4.457535 0.819296
6378.305000 6378.320000 1.000000 0.061544 34.627678 4.418908 0.814144
6382.164000 6382.180000 1.000000 0.048890 34.184168 4.381748 0.811851
6386.045000 6386.060000 1.000000 0.031331 33.728812 4.341291 0.802720
6389.945000 6389.960000 1.000000 0.066023 33.283807 4.303274 0.799040
6393.866000 6393.880000 1.000000 0.030439 32.850802 4.264995 0.790946
6397.798000 6397.810000 1.000000 0.112940 32.430712 4.229320 0.789059
6401.758000 6401.770000 1.000000 0.101212 32.029161 4.195868 0.783309
6405.724000 6405.740000 1.000000 0.087201 31.620230 4.159458 0.779133
6409.723000 6409.740000 1.000000 0.000000 31.227948 4.127012 0.774156
6413.740000 6413.750000 1.000000 0.064989 30.833468 4.092300 0.769436
6417.767000 6417.780000 1.000000 0.065675 30.452916 4.060637 0.767152
6421.816000 6421.830000 1.000000 0.074520 30.075933 4.028741 0.764928
6425.887000 6425.900000 1.000000 0.021608 29.701267 3.997301 0.757863
6429.971000 6429.990000 1.000000 0.017251 29.346704 3.967592 0.754943
6434.089000 6434.100000 1.000000 0.058259 29.028129 3.943749 0.751017
6438.208000 6438.220000 1.000000 0.040259 28.668527 3.912552 0.745858
6442.356000 6442.370000 1.000000 0.077186 28.342540 3.886241 0.741814
6446.519000 6446.530000 1.000000 0.059746 28.001570 3.857568 0.737327
6450.706000 6450.720000 1.000000 0.054433 27.661285 3.829523 0.738675
6454.903000 6454.920000 1.000000 0.060880 27.369280 3.809078 0.734649
6459.126000 6459.140000 1.000000 0.119151 26.852710 3.754821 0.728758
6463.375000 6463.380000 1.000000 0.060113 26.668453 3.747978 0.729217
6467.622000 6467.640000 1.000000 0.061033 26.399028 3.728143 0.728987
6471.904000 6471.920000 1.000000 0.089339 26.123213 3.707512 0.723459
6476.202000 6476.220000 1.000000 0.126051 25.817453 3.681673 0.720568
6480.527000 6480.540000 1.000000 0.093217 25.553684 3.662932 0.720132
6484.862000 6484.870000 1.000000 0.195898 25.281215 3.641547 0.719555
6489.219000 6489.230000 1.000000 0.083719 24.996991 3.618225 0.714483
6493.580000 6493.600000 1.000000 0.000000 24.732659 3.597540 0.712603
6497.983000 6498.000000 1.000000 0.112704 24.471675 3.577535 0.713280
6502.396000 6502.410000 1.000000 0.020728 24.218452 3.558366 0.712350
6506.831000 6506.840000 1.000000 0.121392 23.959006 3.536430 0.706570
6511.276000 6511.290000 1.000000 0.021005 23.705051 3.516556 0.705309
6515.756000 6515.760000 1.000000 0.168683 23.462440 3.497125 0.704965
6520.243000 6520.250000 1.000000 0.046968 23.227012 3.479399 0.703784
6524.754000 6524.760000 1.000000 0.127146 22.986096 3.459494 0.698964
6529.260000 6529.280000 1.000000 0.043756 22.746416 3.439849 0.699793
6533.822000 6533.830000 1.000000 0.105626 22.524795 3.422544 0.697363
6538.373000 6538.390000 1.000000 0.067399 22.291202 3.403859 0.697148
6542.964000 6542.980000 1.000000 0.055503 22.059737 3.383504 0.694430
6547.564000 6547.580000 1.000000 0.053762 21.838737 3.365519 0.691909
6552.187000 6552.200000 1.000000 0.081406 21.610878 3.346953 0.689134
6556.835000 6556.840000 1.000000 0.023633 21.391890 3.327524 0.686607
6561.486000 6561.500000 1.000000 0.153783 21.142555 3.304900 0.684137
6566.177000 6566.180000 1.000000 0.104312 20.971790 3.293924 0.685462
6570.875000 6570.880000 1.000000 0.109794 20.767415 3.277120 0.683581
6575.585000 6575.600000 1.000000 0.024185 20.565266 3.261646 0.681546
6580.321000 6580.330000 1.000000 0.126592 20.358641 3.244217 0.681521
6585.093000 6585.090000 1.000000 0.080406 20.160374 3.227358 0.679027
6589.845000 6589.860000 1.000000 0.057925 19.977781 3.213546 0.679648
6594.648000 6594.660000 1.000000 0.083765 19.805976 3.200707 0.679549
6599.466000 6599.470000 1.000000 0.089844 19.618897 3.185840 0.677935
6604.283000 6604.300000 1.000000 0.149647 19.419217 3.169148 0.678910
6609.136000 6609.150000 1.000000 0.000000 19.228645 3.152819 0.674480
6614.022000 6614.020000 1.000000 0.065067 19.040600 3.137116 0.672925
6618.896000 6618.910000 1.000000 0.224091 18.854348 3.121068 0.671114
6623.808000 6623.820000 1.000000 0.085380 18.667817 3.105694 0.666093
6628.741000 6628.740000 1.000000 0.027273 18.465420 3.086814 0.670229
6633.676000 6633.690000 1.000000 0.098646 18.318513 3.077102 0.669267
6638.641000 6638.650000 1.000000 0.067489 18.139672 3.062132 0.666786
6643.646000 6643.640000 1.000000 0.150228 17.960155 3.046942 0.666262
6648.632000 6648.640000 1.000000 0.000000 17.788890 3.033698 0.667049
6653.654000 6653.660000 1.000000 0.028189 17.615863 3.018816 0.668105
6658.705000 6658.700000 1.000000 0.102514 17.442310 3.004751 0.662946
6663.750000 6663.760000 1.000000 0.029133 17.274296 2.989488 0.664332
6668.829000 6668.840000 1.000000 0.077912 17.118281 2.977081 0.662845
6673.950000 6673.940000 1.000000 0.102210 16.946917 2.962626 0.662853
6679.047000 6679.060000 1.000000 0.094869 16.776945 2.947426 0.661817
6684.196000 6684.190000 1.000000 0.066803 16.614731 2.933501 0.660715
6689.343000 6689.350000 1.000000 0.150682 16.445235 2.918432 0.658642
6694.522000 6694.520000 1.000000 0.126812 16.282761 2.904750 0.658815
6699.731000 6699.720000 1.000000 0.076058 16.121021 2.889082 0.658090
6704.935000 6704.930000 1.000000 0.136815 15.972508 2.877969 0.655989
6710.166000 6710.160000 1.000000 0.143177 15.802728 2.861534 0.654152
6715.418000 6715.410000 1.000000 0.032174 15.642485 2.846581 0.652291
6720.672000 6720.680000 1.000000 0.032573 15.488741 2.832604 0.654110
6725.960000 6725.970000 1.000000 0.089500 15.338838 2.820066 0.651925
6731.287000 6731.280000 1.000000 0.042966 15.178545 2.804724 0.649438
