# XDI/1.0 BlueSky/1.5.3
# Beamline.name: 6BM
# Beamline.xray_source: NSLS-II three-pole wiggler
# Beamline.collimation: paraboloid mirror, 5 nm Rh on 30 nm Pt
# Beamline.focusing: not in use
# Beamline.harmonic_rejection: flat mirror, Si stripe, pitch = 7.0 mrad relative to beam
# Detector.i0: 10 cm N2
# Detector.i1: 25 cm N2
# Detector.i2: 25 cm N2
# Element.symbol: Pr
# Element.edge: L3
# Facility.name: NSLS-II
# Facility.energy: 3.0
# Facility.current: 399.6
# Facility.mode: top-off
# Facility.gup: 305832
# Facility.saf: 305669
# Facility.cycle: 2020-1
# Mono.name: Si(111)
# Mono.d_spacing: 3.1353241
# Mono.encoder_resolution: 0.0000050 deg/ct
# Mono.angle_offset: 16.0581090 deg
# Mono.scan_mode: fixed exit
# Mono.scan_type: step
# Mono.direction: forward in energy
# Sample.name: Pr2O3
# Sample.prep: Cr foil in ref
# Sample.x_position: -7.603 mm
# Sample.y_position: 102.894 mm
# Scan.experimenters: Neil Hyatt, Martin Stennett, Dan Austin, Seb Lawson
# Scan.edge_energy: 5964.299999999999
# Scan.start_time: 2020-03-07T03:28:44
# Scan.end_time: 2020-03-07T03:48:55
# Scan.transient_id: 23444
# Scan.uid: ad1d10b0-9ca9-4b2e-9195-69d06167099a
# Scan.plot_hint: ln(I0/It)  --  ln($5/$6)
# Scan.sequence: merge of 2 scans
# Column.1: energy eV
# Column.2: requested_energy eV
# Column.3: measurement_time seconds
# Column.4: mutrans
# Column.5: i0
# Column.6: itrans
# Column.7: irefer
# /////
# 
# -----
# energy   requested_energy   measurement_time   mutrans   i0   itrans   irefer
5764.298000 5764.300000 1.000000 2.577726 76.942953 5.843666 0.949627
5774.313000 5774.300000 1.000000 2.560859 76.903001 5.939917 0.973370
5784.320000 5784.300000 1.000000 2.544290 76.859577 6.035736 0.997614
5794.315000 5794.300000 1.000000 2.528388 76.883257 6.134351 1.022509
5804.312000 5804.300000 1.000000 2.511688 76.827001 6.233054 1.047363
5814.306000 5814.300000 1.000000 2.495549 76.798708 6.332127 1.072863
5824.309000 5824.300000 1.000000 2.479314 76.708732 6.428250 1.097967
5834.307000 5834.300000 1.000000 2.463266 76.633283 6.525798 1.124316
5844.305000 5844.300000 1.000000 2.447291 76.514372 6.620592 1.150622
5854.303000 5854.300000 1.000000 2.431578 76.331989 6.709417 1.175420
5864.301000 5864.300000 1.000000 2.415755 75.939315 6.781332 1.198201
5874.305000 5874.300000 1.000000 2.400085 77.061275 6.990253 1.244721
5884.303000 5884.300000 1.000000 2.384681 76.614314 7.057580 1.267740
5894.286000 5894.300000 1.000000 2.369445 76.341567 7.138598 1.293638
5904.294000 5904.300000 1.000000 2.354284 76.109068 7.227437 1.320341
5914.291000 5914.300000 1.000000 2.339678 75.216410 7.247745 1.335210
5924.295000 5924.300000 1.000000 2.325442 76.307846 7.458306 1.384817
5934.299000 5934.300000 1.000000 2.312477 75.847073 7.510023 1.405805
5936.293000 5936.300000 1.000000 2.310237 76.075395 7.549555 1.415926
5938.292000 5938.300000 1.000000 2.308166 75.696320 7.527500 1.414306
5940.290000 5940.300000 1.000000 2.306256 74.905902 7.463138 1.405334
5942.291000 5942.300000 1.000000 2.304501 70.084672 6.995060 1.319812
5944.294000 5944.300000 1.000000 2.303616 71.167595 7.109421 1.340994
5946.290000 5946.300000 1.000000 2.302462 76.755076 7.676445 1.450880
5948.291000 5948.300000 1.000000 2.302773 76.591890 7.657748 1.451931
5950.307000 5950.300000 1.000000 2.303854 76.425652 7.632802 1.449385
5952.296000 5952.300000 1.000000 2.306649 76.305302 7.599620 1.445387
5954.294000 5954.300000 1.000000 2.312736 76.196474 7.542808 1.437102
5954.544000 5954.550000 1.000000 2.313772 76.157592 7.531012 1.435060
5954.792000 5954.800000 1.000000 2.314928 76.121408 7.518754 1.433477
5955.042000 5955.050000 1.000000 2.316295 76.111854 7.507475 1.431142
5955.293000 5955.300000 1.000000 2.317568 76.089215 7.495707 1.429614
5955.542000 5955.550000 1.000000 2.319060 76.054336 7.481131 1.426977
5955.794000 5955.800000 1.000000 2.320922 76.044471 7.466204 1.424776
5956.043000 5956.050000 1.000000 2.322705 76.052229 7.453788 1.422352
5956.291000 5956.300000 1.000000 2.324627 75.999707 7.434452 1.419590
5956.542000 5956.550000 1.000000 2.326820 75.982128 7.416396 1.415816
5956.792000 5956.800000 1.000000 2.329257 76.000416 7.400157 1.413278
5957.043000 5957.050000 1.000000 2.332146 75.972055 7.375999 1.410032
5957.293000 5957.300000 1.000000 2.335217 75.961681 7.352349 1.404922
5957.543000 5957.550000 1.000000 2.338573 75.912973 7.323011 1.399446
5957.794000 5957.800000 1.000000 2.342248 75.912297 7.295918 1.394768
5958.044000 5958.050000 1.000000 2.346312 75.896461 7.264734 1.389025
5958.296000 5958.300000 1.000000 2.350845 75.872448 7.229592 1.383269
5958.546000 5958.550000 1.000000 2.355428 75.848357 7.194370 1.376510
5958.799000 5958.800000 1.000000 2.360323 75.822631 7.156738 1.370419
5959.050000 5959.050000 1.000000 2.365191 75.812687 7.120995 1.363473
5959.299000 5959.300000 1.000000 2.369999 75.822694 7.088179 1.357668
5959.552000 5959.550000 1.000000 2.375426 75.816667 7.048811 1.350197
5959.798000 5959.800000 1.000000 2.381279 75.774582 7.004268 1.342550
5960.047000 5960.050000 1.000000 2.387424 75.772807 6.961227 1.333895
5960.297000 5960.300000 1.000000 2.394289 75.747403 6.911304 1.325874
5960.547000 5960.550000 1.000000 2.401467 75.706068 6.857940 1.315761
5960.797000 5960.800000 1.000000 2.409222 75.710291 6.805347 1.306507
5961.048000 5961.050000 1.000000 2.417466 75.682396 6.746755 1.295245
5961.298000 5961.300000 1.000000 2.426969 75.673627 6.682162 1.283637
5961.549000 5961.550000 1.000000 2.437485 75.646040 6.609989 1.269844
5961.799000 5961.800000 1.000000 2.449313 75.618203 6.529864 1.254923
5962.049000 5962.050000 1.000000 2.462522 75.611672 6.444130 1.239722
5962.299000 5962.300000 1.000000 2.477045 75.595444 6.349549 1.222006
5962.549000 5962.550000 1.000000 2.494159 75.574995 6.240575 1.201533
5962.795000 5962.800000 1.000000 2.514043 75.583644 6.119991 1.178644
5963.048000 5963.050000 1.000000 2.536984 75.576651 5.980174 1.152241
5963.297000 5963.300000 1.000000 2.563309 75.575692 5.824019 1.123577
5963.551000 5963.550000 1.000000 2.592883 75.541914 5.650498 1.090770
5963.800000 5963.800000 1.000000 2.625701 75.501664 5.465514 1.055052
5964.052000 5964.050000 1.000000 2.662497 75.493522 5.266230 1.018692
5964.305000 5964.300000 1.000000 2.703731 75.494478 5.053032 0.978593
5964.553000 5964.550000 1.000000 2.748014 75.484004 4.833801 0.936168
5964.805000 5964.800000 1.000000 2.796208 75.458634 4.606105 0.893579
5965.053000 5965.050000 1.000000 2.845411 75.447901 4.383024 0.851201
5965.301000 5965.300000 1.000000 2.897087 75.419575 4.162407 0.809462
5965.551000 5965.550000 1.000000 2.952697 75.389869 3.936185 0.767228
5965.797000 5965.800000 1.000000 3.010665 75.408372 3.715920 0.725278
5966.048000 5966.050000 1.000000 3.069583 75.376887 3.499778 0.684198
5966.297000 5966.300000 1.000000 3.129244 75.379244 3.298342 0.645108
5966.549000 5966.550000 1.000000 3.185948 75.366742 3.114984 0.610465
5966.801000 5966.800000 1.000000 3.238871 75.349268 2.954653 0.580066
5967.050000 5967.050000 1.000000 3.287567 75.317069 2.813529 0.553447
5967.304000 5967.300000 1.000000 3.329760 75.305599 2.696086 0.530388
5967.548000 5967.550000 1.000000 3.363428 75.281155 2.606857 0.513976
5967.805000 5967.800000 1.000000 3.387555 75.272392 2.543344 0.501156
5968.051000 5968.050000 1.000000 3.401829 75.234044 2.506432 0.494156
5968.302000 5968.300000 1.000000 3.406854 75.226594 2.493465 0.491223
5968.551000 5968.550000 1.000000 3.402186 75.230464 2.505407 0.493688
5968.800000 5968.800000 1.000000 3.389061 75.324919 2.541813 0.500777
5969.045000 5969.050000 1.000000 3.368023 75.332253 2.595340 0.510759
5969.299000 5969.300000 1.000000 3.340612 75.337865 2.667531 0.524621
5969.549000 5969.550000 1.000000 3.309337 75.354100 2.752624 0.541052
5969.803000 5969.800000 1.000000 3.274477 75.302877 2.848812 0.559183
5970.054000 5970.050000 1.000000 3.237459 75.285561 2.955976 0.579928
5970.303000 5970.300000 1.000000 3.198722 75.288095 3.072365 0.602426
5970.551000 5970.550000 1.000000 3.160255 75.276121 3.193078 0.625002
5970.802000 5970.800000 1.000000 3.121997 75.227637 3.315940 0.648393
5971.053000 5971.050000 1.000000 3.086199 75.216333 3.436964 0.672141
5971.300000 5971.300000 1.000000 3.051692 75.213527 3.556009 0.694217
5971.549000 5971.550000 1.000000 3.017734 75.204356 3.678632 0.718577
5971.800000 5971.800000 1.000000 2.984622 75.181370 3.801064 0.741507
5972.051000 5972.050000 1.000000 2.953142 75.136257 3.920270 0.764420
5972.302000 5972.300000 1.000000 2.923734 75.158720 4.037783 0.787302
5972.553000 5972.550000 1.000000 2.896877 75.128010 4.146268 0.808515
5972.804000 5972.800000 1.000000 2.871351 75.118607 4.252970 0.828998
5973.054000 5973.050000 1.000000 2.847225 75.099282 4.356136 0.849178
5973.302000 5973.300000 1.000000 2.824582 75.132173 4.457845 0.868426
5973.553000 5973.550000 1.000000 2.803278 75.198209 4.558377 0.887144
5973.801000 5973.800000 1.000000 2.784147 75.193537 4.646060 0.904807
5974.053000 5974.050000 1.000000 2.766653 75.166250 4.726621 0.920589
5974.299000 5974.300000 1.000000 2.750571 75.142033 4.801064 0.935330
5974.552000 5974.550000 1.000000 2.735826 75.153895 4.873135 0.950102
5974.800000 5974.800000 1.000000 2.722071 75.135268 4.938884 0.961745
5975.052000 5975.050000 1.000000 2.709726 75.080194 4.996844 0.973109
5975.304000 5975.300000 1.000000 2.699218 75.079793 5.049717 0.983581
5975.553000 5975.550000 1.000000 2.690119 75.045037 5.093519 0.992145
5975.803000 5975.800000 1.000000 2.682091 75.044262 5.134524 1.000061
5976.053000 5976.050000 1.000000 2.675296 75.037998 5.169412 1.007041
5976.301000 5976.300000 1.000000 2.669319 75.027031 5.199436 1.012605
5976.549000 5976.550000 1.000000 2.664197 74.991931 5.223840 1.017505
5976.798000 5976.800000 1.000000 2.660262 74.979506 5.243268 1.021901
5977.049000 5977.050000 1.000000 2.656740 74.971419 5.261240 1.025516
5977.301000 5977.300000 1.000000 2.653485 74.936670 5.275922 1.029133
5977.551000 5977.550000 1.000000 2.650891 74.921493 5.288509 1.031895
5977.799000 5977.800000 1.000000 2.648526 74.906105 5.299865 1.033408
5978.054000 5978.050000 1.000000 2.646448 74.896024 5.310297 1.035734
5978.303000 5978.300000 1.000000 2.644681 74.880170 5.318576 1.036770
5978.551000 5978.550000 1.000000 2.643032 74.833945 5.324080 1.038759
5978.801000 5978.800000 1.000000 2.641700 74.811808 5.329646 1.039981
5979.051000 5979.050000 1.000000 2.640018 74.793415 5.337273 1.041445
5979.302000 5979.300000 1.000000 2.638763 74.766144 5.342047 1.043272
5979.550000 5979.550000 1.000000 2.637363 74.736353 5.347332 1.043281
5979.802000 5979.800000 1.000000 2.636040 74.704162 5.352104 1.045110
5980.052000 5980.050000 1.000000 2.634600 74.689679 5.358784 1.046086
5980.302000 5980.300000 1.000000 2.633674 74.665179 5.361989 1.047166
5980.554000 5980.550000 1.000000 2.632509 74.633865 5.365996 1.048370
5980.805000 5980.800000 1.000000 2.631082 74.636803 5.373913 1.049836
5981.056000 5981.050000 1.000000 2.629913 74.597042 5.377412 1.050347
5981.304000 5981.300000 1.000000 2.628615 74.557342 5.381468 1.051682
5981.553000 5981.550000 1.000000 2.627161 74.530951 5.387432 1.052316
5981.800000 5981.800000 1.000000 2.626028 74.527682 5.393226 1.053838
5982.050000 5982.050000 1.000000 2.624618 74.468895 5.396570 1.053930
5982.298000 5982.300000 1.000000 2.623438 74.460508 5.402317 1.056497
5982.550000 5982.550000 1.000000 2.622088 74.435484 5.407772 1.056975
5982.800000 5982.800000 1.000000 2.621209 74.395674 5.409630 1.057629
5983.051000 5983.050000 1.000000 2.620165 74.365470 5.413091 1.058244
5983.303000 5983.300000 1.000000 2.619162 74.308326 5.414396 1.058325
5983.549000 5983.550000 1.000000 2.618129 74.283768 5.418173 1.058500
5983.803000 5983.800000 1.000000 2.617364 74.234815 5.418789 1.058813
5984.053000 5984.050000 1.000000 2.616810 74.222510 5.420903 1.059406
5984.302000 5984.300000 1.000000 2.616314 74.155581 5.418677 1.059490
5984.550000 5984.550000 1.000000 2.615645 74.111527 5.419083 1.059480
5984.799000 5984.800000 1.000000 2.615161 74.082086 5.419536 1.060088
5985.050000 5985.050000 1.000000 2.614631 74.016027 5.417582 1.058988
5985.305000 5985.300000 1.000000 2.614227 73.963499 5.415939 1.059233
5985.556000 5985.550000 1.000000 2.613905 73.893085 5.412525 1.057114
5985.806000 5985.800000 1.000000 2.613672 73.837669 5.409731 1.056359
5986.054000 5986.050000 1.000000 2.613351 73.783690 5.407499 1.056621
5986.303000 5986.300000 1.000000 2.613310 73.706086 5.402030 1.055101
5986.553000 5986.550000 1.000000 2.613396 73.647596 5.397290 1.054024
5986.802000 5986.800000 1.000000 2.613293 73.538919 5.389881 1.051643
5987.050000 5987.050000 1.000000 2.613548 73.453465 5.382238 1.050307
5987.299000 5987.300000 1.000000 2.613760 73.362061 5.374426 1.047700
5987.549000 5987.550000 1.000000 2.614366 73.233675 5.361768 1.044352
5987.798000 5987.800000 1.000000 2.615012 73.114125 5.349581 1.040437
5988.049000 5988.050000 1.000000 2.615401 72.931257 5.334098 1.034951
5988.300000 5988.300000 1.000000 2.616338 72.746969 5.315648 1.028740
5988.551000 5988.550000 1.000000 2.617113 72.564636 5.298212 1.021428
5988.802000 5988.800000 1.000000 2.618221 72.282629 5.271764 1.009647
5989.053000 5989.050000 1.000000 2.618981 71.944538 5.243103 0.995983
5989.301000 5989.300000 1.000000 2.620277 71.522902 5.205669 0.978503
5989.552000 5989.550000 1.000000 2.621513 70.966808 5.158781 0.957664
5989.803000 5989.800000 1.000000 2.622440 70.236045 5.100914 0.936496
5990.050000 5990.050000 1.000000 2.623992 69.144150 5.013886 0.913734
5990.303000 5990.300000 1.000000 2.625077 67.487080 4.888355 0.885199
5990.554000 5990.550000 1.000000 2.626069 65.043588 4.706693 0.847759
5990.802000 5990.800000 1.000000 2.627394 61.506290 4.444852 0.797248
5991.055000 5991.050000 1.000000 2.629279 57.544002 4.150578 0.740719
5991.303000 5991.300000 1.000000 2.631697 54.641912 3.931761 0.696753
5991.553000 5991.550000 1.000000 2.634698 54.139752 3.883953 0.682880
5991.804000 5991.800000 1.000000 2.637562 56.398943 4.034454 0.703202
5992.051000 5992.050000 1.000000 2.640294 61.339453 4.376039 0.756230
5992.301000 5992.300000 1.000000 2.641974 67.495167 4.807096 0.827858
5992.548000 5992.550000 1.000000 2.643559 71.770037 5.103521 0.876537
5992.799000 5992.800000 1.000000 2.645492 73.872547 5.242862 0.898069
5993.049000 5993.050000 1.000000 2.647512 74.715079 5.291927 0.902796
5993.302000 5993.300000 1.000000 2.649984 75.010446 5.299692 0.901545
5993.552000 5993.550000 1.000000 2.652410 75.150099 5.296688 0.898888
5993.803000 5993.800000 1.000000 2.654889 75.173177 5.285076 0.894945
5994.056000 5994.050000 1.000000 2.657422 75.205382 5.273870 0.891664
5994.303000 5994.300000 1.000000 2.660169 75.194557 5.258733 0.888521
5995.398000 5995.380000 1.000000 2.671022 75.030518 5.190839 0.876386
5996.487000 5996.480000 1.000000 2.680976 74.832227 5.125566 0.866045
5997.593000 5997.590000 1.000000 2.689998 74.759734 5.074919 0.842625
5998.743000 5998.730000 1.000000 2.696834 74.608072 5.029939 0.807040
5999.890000 5999.880000 1.000000 2.700786 74.510699 5.003641 0.775920
6001.074000 6001.060000 1.000000 2.702849 74.375137 4.984220 0.752067
6002.261000 6002.250000 1.000000 2.700907 74.271218 4.986924 0.738058
6003.470000 6003.460000 1.000000 2.696559 74.193119 5.003420 0.728078
6004.699000 6004.690000 1.000000 2.689321 74.059368 5.030641 0.720986
6005.948000 6005.940000 1.000000 2.680065 73.963166 5.070818 0.715022
6007.217000 6007.210000 1.000000 2.669083 73.874436 5.120645 0.710539
6008.512000 6008.500000 1.000000 2.657549 73.762999 5.172414 0.705420
6009.816000 6009.810000 1.000000 2.645513 73.670496 5.228227 0.706828
6011.139000 6011.130000 1.000000 2.634391 73.572904 5.279912 0.726928
6012.484000 6012.480000 1.000000 2.624383 73.488917 5.326748 0.754138
6013.851000 6013.840000 1.000000 2.616049 73.352069 5.361438 0.772634
6015.235000 6015.230000 1.000000 2.609217 73.257938 5.391133 0.779481
6016.638000 6016.630000 1.000000 2.603948 73.171280 5.413276 0.776263
6018.059000 6018.050000 1.000000 2.599951 73.039114 5.425182 0.767792
6019.498000 6019.490000 1.000000 2.596466 72.960204 5.438199 0.764793
6020.957000 6020.950000 1.000000 2.593017 72.850539 5.448816 0.768921
6022.436000 6022.430000 1.000000 2.590140 72.718965 5.454619 0.776128
6023.938000 6023.930000 1.000000 2.587378 72.610257 5.461534 0.779882
6025.447000 6025.440000 1.000000 2.585403 72.513222 5.465012 0.777028
6026.986000 6026.980000 1.000000 2.584220 72.387812 5.462018 0.769302
6028.547000 6028.540000 1.000000 2.583798 72.276222 5.455901 0.764395
6030.114000 6030.110000 1.000000 2.584243 72.125452 5.442100 0.759675
6031.708000 6031.700000 1.000000 2.584744 72.025082 5.431788 0.757692
6033.315000 6033.310000 1.000000 2.585916 71.872160 5.413905 0.755417
6034.955000 6034.950000 1.000000 2.588082 71.708610 5.389921 0.752779
6036.612000 6036.600000 1.000000 2.590178 71.561366 5.367554 0.746677
6038.280000 6038.270000 1.000000 2.592926 71.429537 5.342976 0.741291
6039.957000 6039.950000 1.000000 2.594844 71.277855 5.321437 0.738053
6041.671000 6041.660000 1.000000 2.596228 71.116026 5.302008 0.738704
6043.398000 6043.390000 1.000000 2.595953 70.938581 5.290232 0.740185
6045.138000 6045.130000 1.000000 2.594638 70.784352 5.285683 0.742263
6046.906000 6046.900000 1.000000 2.592623 70.629294 5.284752 0.745996
6048.684000 6048.680000 1.000000 2.589866 70.466085 5.287067 0.751731
6050.482000 6050.480000 1.000000 2.586689 70.275325 5.289503 0.759673
6052.303000 6052.300000 1.000000 2.582117 70.084923 5.299335 0.769573
6054.148000 6054.140000 1.000000 2.577510 69.864434 5.307088 0.778303
6056.003000 6056.000000 1.000000 2.572252 69.644290 5.318229 0.786448
6057.882000 6057.880000 1.000000 2.567441 69.393721 5.324598 0.792982
6059.788000 6059.780000 1.000000 2.562670 69.158465 5.332033 0.797537
6061.708000 6061.700000 1.000000 2.558124 68.912834 5.337267 0.799500
6063.636000 6063.630000 1.000000 2.554131 68.702495 5.342293 0.797735
6065.594000 6065.590000 1.000000 2.550264 68.486158 5.346066 0.792145
6067.566000 6067.560000 1.000000 2.547294 68.249777 5.343485 0.785066
6069.573000 6069.560000 1.000000 2.545170 68.027056 5.337370 0.775816
6071.579000 6071.570000 1.000000 2.542955 67.768453 5.328921 0.769600
6073.612000 6073.600000 1.000000 2.540469 67.544098 5.324555 0.773137
6075.657000 6075.650000 1.000000 2.537458 67.310820 5.322136 0.781183
6077.729000 6077.720000 1.000000 2.533768 67.107901 5.325639 0.791131
6079.804000 6079.810000 1.000000 2.530048 66.847095 5.324704 0.802660
6081.916000 6081.910000 1.000000 2.525889 66.567656 5.324530 0.813134
6084.050000 6084.040000 1.000000 2.521591 66.281172 5.324487 0.819804
6086.203000 6086.190000 1.000000 2.518096 65.998070 5.320310 0.821586
6088.356000 6088.350000 1.000000 2.515211 65.714299 5.312762 0.813140
6090.522000 6090.530000 1.000000 2.513613 65.450821 5.299902 0.799355
6092.746000 6092.740000 1.000000 2.511250 65.188994 5.291208 0.783369
6094.957000 6094.960000 1.000000 2.509338 64.904910 5.278222 0.767959
6097.218000 6097.200000 1.000000 2.508296 64.569289 5.256425 0.755032
6099.468000 6099.460000 1.000000 2.507186 64.260436 5.237068 0.748128
6101.730000 6101.740000 1.000000 2.505905 63.966071 5.219752 0.748708
6104.033000 6104.040000 1.000000 2.504124 63.661506 5.204135 0.756584
6106.343000 6106.350000 1.000000 2.502503 63.330769 5.185517 0.768759
6108.688000 6108.690000 1.000000 2.499821 63.048189 5.176206 0.782814
6111.042000 6111.040000 1.000000 2.496786 62.665629 5.160479 0.793785
6113.432000 6113.420000 1.000000 2.493988 62.321827 5.146604 0.801018
6115.804000 6115.810000 1.000000 2.490818 61.975826 5.134180 0.804044
6118.215000 6118.220000 1.000000 2.486913 61.622884 5.124980 0.802275
6120.643000 6120.650000 1.000000 2.481994 61.383200 5.130085 0.802924
6123.091000 6123.100000 1.000000 2.476761 61.016747 5.126300 0.800489
6125.571000 6125.570000 1.000000 2.471490 60.666113 5.123755 0.802307
6128.052000 6128.060000 1.000000 2.466480 60.292822 5.117843 0.806174
6130.566000 6130.570000 1.000000 2.461570 59.924407 5.111652 0.809417
6133.102000 6133.090000 1.000000 2.457552 59.538116 5.099200 0.811824
6135.650000 6135.640000 1.000000 2.453728 59.126431 5.083247 0.811874
6138.200000 6138.200000 1.000000 2.450455 58.723294 5.065172 0.808490
6140.783000 6140.790000 1.000000 2.447304 58.317507 5.046017 0.806135
6143.381000 6143.390000 1.000000 2.443917 57.899717 5.026857 0.802714
6146.003000 6146.010000 1.000000 2.441361 57.452888 5.000845 0.797062
6148.640000 6148.650000 1.000000 2.438523 57.013375 4.976660 0.789858
6151.307000 6151.310000 1.000000 2.435583 56.519391 4.948123 0.782560
6153.985000 6153.990000 1.000000 2.432496 55.991986 4.917105 0.778751
6156.679000 6156.690000 1.000000 2.428578 55.387341 4.883098 0.771613
6159.401000 6159.410000 1.000000 2.424549 54.380319 4.813668 0.757188
6162.130000 6162.140000 1.000000 2.420489 53.610029 4.764785 0.744152
6164.885000 6164.900000 1.000000 2.416006 54.037281 4.824308 0.748159
6167.654000 6167.670000 1.000000 2.411728 54.554165 4.891333 0.760429
6170.462000 6170.470000 1.000000 2.407616 54.287715 4.887522 0.766390
6173.270000 6173.280000 1.000000 2.403382 53.740651 4.858779 0.770406
6176.098000 6176.110000 1.000000 2.399354 53.242076 4.833111 0.775450
6178.956000 6178.960000 1.000000 2.395942 52.741420 4.804054 0.778077
6181.820000 6181.830000 1.000000 2.392492 52.270485 4.777616 0.780270
6184.715000 6184.720000 1.000000 2.389331 51.791626 4.748852 0.780979
6187.611000 6187.620000 1.000000 2.386287 51.293529 4.717503 0.778122
6190.542000 6190.550000 1.000000 2.383390 50.816403 4.687171 0.775161
6193.493000 6193.500000 1.000000 2.380581 50.335642 4.655900 0.773075
6196.453000 6196.460000 1.000000 2.377777 49.858096 4.624668 0.770786
6199.432000 6199.440000 1.000000 2.374146 49.389153 4.597856 0.768102
6202.443000 6202.450000 1.000000 2.370297 48.907108 4.570534 0.766155
6205.459000 6205.470000 1.000000 2.366569 48.416419 4.541556 0.764008
6208.502000 6208.510000 1.000000 2.362011 47.923134 4.515854 0.763206
6211.558000 6211.570000 1.000000 2.357084 47.431064 4.491541 0.764190
6214.642000 6214.650000 1.000000 2.352615 46.944684 4.465396 0.763118
6217.740000 6217.750000 1.000000 2.347260 46.438608 4.440967 0.760610
6220.852000 6220.860000 1.000000 2.342453 45.955121 4.415909 0.755028
6223.989000 6224.000000 1.000000 2.337497 45.488680 4.392796 0.750026
6227.142000 6227.150000 1.000000 2.332934 45.014919 4.366948 0.742687
6230.317000 6230.330000 1.000000 2.328656 44.506860 4.336155 0.734566
6233.505000 6233.520000 1.000000 2.324519 44.025605 4.307039 0.727319
6236.719000 6236.730000 1.000000 2.320923 43.537608 4.274615 0.718044
6239.951000 6239.960000 1.000000 2.317464 43.075618 4.243966 0.711293
6243.204000 6243.220000 1.000000 2.313682 42.606107 4.213582 0.704191
6246.465000 6246.480000 1.000000 2.310462 42.149015 4.181844 0.701383
6249.758000 6249.770000 1.000000 2.306901 41.647852 4.146859 0.700090
6253.078000 6253.080000 1.000000 2.302647 41.189793 4.118710 0.702591
6256.404000 6256.410000 1.000000 2.298115 40.728581 4.091090 0.706625
6259.746000 6259.750000 1.000000 2.293770 40.285590 4.064234 0.709150
6263.136000 6263.120000 1.000000 2.289032 39.824162 4.036789 0.708966
6266.506000 6266.500000 1.000000 2.283824 39.384497 4.013070 0.706057
6269.896000 6269.900000 1.000000 2.278956 38.933879 3.986499 0.702846
6273.316000 6273.330000 1.000000 2.274141 38.486836 3.959677 0.699527
6276.755000 6276.770000 1.000000 2.269260 38.056917 3.934579 0.698166
6280.221000 6280.230000 1.000000 2.264635 37.619113 3.907398 0.695518
6283.693000 6283.700000 1.000000 2.260093 37.178611 3.879260 0.690936
6287.198000 6287.200000 1.000000 2.256079 36.758130 3.850768 0.687950
6290.733000 6290.720000 1.000000 2.251598 36.340385 3.824182 0.684804
6294.272000 6294.260000 1.000000 2.247327 35.943870 3.798663 0.681608
6297.815000 6297.810000 1.000000 2.243210 35.527394 3.770062 0.680062
6301.375000 6301.390000 1.000000 2.239179 35.129555 3.742863 0.678430
6304.978000 6304.980000 1.000000 2.234654 34.739331 3.718093 0.676342
6308.584000 6308.590000 1.000000 2.230215 34.337438 3.691444 0.672545
6312.216000 6312.220000 1.000000 2.225803 33.960922 3.667119 0.668926
6315.886000 6315.870000 1.000000 2.220868 33.578919 3.643824 0.664972
6319.533000 6319.540000 1.000000 2.215866 33.211715 3.622049 0.660611
6323.230000 6323.230000 1.000000 2.210890 32.841989 3.599567 0.656058
6326.952000 6326.940000 1.000000 2.205665 32.487036 3.579389 0.653213
6330.653000 6330.660000 1.000000 2.200630 32.135708 3.558514 0.649147
6334.401000 6334.410000 1.000000 2.195899 31.763462 3.533965 0.646522
6338.177000 6338.170000 1.000000 2.190861 31.410462 3.512372 0.644613
6341.951000 6341.960000 1.000000 2.185828 31.062604 3.490966 0.642634
6345.744000 6345.760000 1.000000 2.180985 30.722463 3.469478 0.641086
6349.576000 6349.580000 1.000000 2.175744 30.393664 3.450420 0.640574
6353.417000 6353.420000 1.000000 2.171162 30.061693 3.428412 0.639438
6357.272000 6357.280000 1.000000 2.166331 29.728500 3.406812 0.638099
6361.173000 6361.160000 1.000000 2.161336 29.407764 3.386986 0.638452
6365.046000 6365.060000 1.000000 2.156366 29.109799 3.369327 0.638438
6368.973000 6368.980000 1.000000 2.151638 28.770938 3.345884 0.637390
6372.905000 6372.910000 1.000000 2.146875 28.468364 3.326516 0.635076
6376.861000 6376.870000 1.000000 2.141897 28.186720 3.310030 0.633998
6380.855000 6380.840000 1.000000 2.136979 27.862140 3.288090 0.630618
6384.834000 6384.840000 1.000000 2.132158 27.557647 3.267838 0.628546
6388.840000 6388.850000 1.000000 2.127015 27.272434 3.250693 0.627947
6392.875000 6392.880000 1.000000 2.121640 26.999403 3.235496 0.626700
6396.924000 6396.930000 1.000000 2.116254 26.689530 3.215632 0.624369
6400.985000 6401.000000 1.000000 2.110929 26.426743 3.200938 0.622337
6405.076000 6405.090000 1.000000 2.106021 26.151447 3.183190 0.621606
6409.187000 6409.200000 1.000000 2.100932 25.874130 3.165496 0.618725
6413.308000 6413.320000 1.000000 2.095770 25.611260 3.149554 0.618527
6417.454000 6417.470000 1.000000 2.091429 25.352114 3.131245 0.616654
6421.622000 6421.630000 1.000000 2.086960 25.078859 3.111382 0.613864
