# XDI/1.0 BlueSky/1.10.0 BMM/2023-1.0-py310-tiled
# Beamline.name: BMM (06BM) -- Beamline for Materials Measurement (NIST)
# Beamline.xray_source: NSLS-II three-pole wiggler
# Beamline.collimation: paraboloid mirror, 5 nm Rh on 30 nm Pt
# Beamline.focusing: not in use
# Beamline.harmonic_rejection: flat mirror, Pt stripe, pitch = 7.0 mrad relative to beam
# Beamline.software: Bluesky 1.10.0, Ophyd 1.7.0, DataBroker 2.0.0b13, Python 3.10.8, 2023-1.0-py310-tiled
# Detector.I0: 10 cm N2
# Detector.I1: 25 cm N2
# Detector.I2: 25 cm N2
# Element.symbol: Pb
# Element.edge: L1
# Element.reference: Pb
# Element.reference_material: Pb foil
# Facility.name: NSLS-II
# Facility.energy: 3.0
# Facility.current: 401.0
# Facility.mode: top-off
# Facility.GUP: 301027
# Facility.SAF: 310583
# Facility.cycle: 2023-2
# Mono.name: Si(111)
# Mono.d_spacing: 3.1351860
# Mono.encoder_resolution: 0.0000050 deg/ct
# Mono.angle_offset: 16.0754326 deg
# Mono.scan_mode: pseudo channel cut
# Mono.scan_type: step
# Mono.direction: forward in energy
# Sample.name: PbCO3
# Sample.prep: powder on tape
# Sample.x: 143.785 mm
# Sample.y: 114.695 mm
# Sample.SDD_position: 205.000 mm
# Scan.experimenters: Bruce Ravel
# Scan.edge_energy: 15860.8
# Scan.start_time: 2023-06-23T18:30:26
# Scan.end_time: 2023-06-23T18:38:45
# Scan.transient_id: 84936
# Scan.uid: e41eae72-643c-4ad5-b4e9-27742c4d792d
# Scan.plot_hint: ln(I0/It)  --  ln($5/$6)
# Column.1: energy eV
# Column.2: requested_energy eV
# Column.3: measurement_time seconds
# Column.4: xmu 
# Column.5: I0 nA
# Column.6: It nA
# Column.7: Ir nA
# ///////////
# BMM standards collection
# -----------
# energy  requested_energy  measurement_time  xmu  I0  It  Ir
  15660.859  15660.800  0.500  -0.012941  24.757181  25.079643  7.004807
  15670.863  15670.800  0.500  -0.014066  24.615059  24.963751  6.982897
  15680.944  15680.800  0.500  -0.014903  24.618109  24.987743  7.004145
  15690.908  15690.800  0.500  -0.015843  24.581744  24.974306  7.012291
  15700.875  15700.800  0.500  -0.016902  24.518265  24.936204  7.015421
  15710.876  15710.800  0.500  -0.017836  24.449277  24.889271  7.013048
  15720.900  15720.800  0.500  -0.018661  24.400444  24.860059  7.017209
  15730.949  15730.800  0.500  -0.019671  24.335821  24.819268  7.017545
  15740.760  15740.800  0.500  -0.020511  24.284048  24.787278  7.018814
  15750.802  15750.800  0.500  -0.021627  24.210858  24.740164  7.016919
  15760.812  15760.800  0.500  -0.022477  24.153289  24.702340  7.016945
  15770.825  15770.800  0.500  -0.023196  24.096167  24.661634  7.013172
  15780.818  15780.800  0.500  -0.023969  24.039443  24.622611  7.011884
  15790.856  15790.800  0.500  -0.024620  23.978430  24.576098  7.005222
  15800.864  15800.800  0.500  -0.025182  23.920108  24.530105  6.996524
  15810.851  15810.800  0.500  -0.025586  23.863969  24.482435  6.988791
  15820.873  15820.800  0.500  -0.025501  23.806587  24.421495  6.968086
  15830.876  15830.800  0.500  -0.024933  23.741227  24.340596  6.932449
  15832.785  15832.800  0.500  -0.024639  23.730438  24.322393  6.922454
  15834.794  15834.800  0.500  -0.024409  23.718986  24.305067  6.912692
  15836.760  15836.800  0.500  -0.023889  23.710583  24.283817  6.899506
  15838.770  15838.800  0.500  -0.023272  23.698685  24.256671  6.881450
  15840.791  15840.800  0.500  -0.022498  23.687383  24.226347  6.863502
  15842.802  15842.800  0.500  -0.021419  23.675028  24.187605  6.836767
  15844.803  15844.800  0.500  -0.020227  23.653282  24.136583  6.806022
  15846.782  15846.800  0.500  -0.018628  23.637904  24.082363  6.768976
  15848.795  15848.800  0.500  -0.016333  23.630715  24.019837  6.719264
  15850.775  15850.800  0.500  -0.013173  23.608048  23.921106  6.647859
  15851.017  15851.100  0.500  -0.012740  23.612207  23.914953  6.641598
  15851.314  15851.400  0.500  -0.012361  23.608141  23.901772  6.628415
  15851.644  15851.700  0.500  -0.011589  23.604218  23.879369  6.613258
  15851.952  15852.000  0.500  -0.010871  23.604184  23.862193  6.599336
  15852.205  15852.300  0.500  -0.010410  23.596848  23.843767  6.585181
  15852.535  15852.600  0.500  -0.009472  23.601756  23.826382  6.573405
  15852.865  15852.900  0.500  -0.008571  23.597600  23.800719  6.553865
  15853.163  15853.200  0.500  -0.008062  23.597801  23.788820  6.539496
  15853.427  15853.500  0.500  -0.007223  23.588785  23.759785  6.522369
  15853.757  15853.800  0.500  -0.006331  23.592337  23.742181  6.505624
  15854.087  15854.100  0.500  -0.005285  23.592771  23.717779  6.487048
  15854.373  15854.400  0.500  -0.004311  23.598352  23.700295  6.468673
  15854.659  15854.700  0.500  -0.003218  23.595668  23.671722  6.446655
  15854.990  15855.000  0.500  -0.002178  23.593030  23.644475  6.426172
  15855.287  15855.300  0.500  -0.000924  23.590699  23.612504  6.400294
  15855.584  15855.600  0.500  0.000196  23.585609  23.580977  6.377380
  15855.881  15855.900  0.500  0.001568  23.583441  23.546500  6.350762
  15856.190  15856.200  0.500  0.002964  23.588663  23.518847  6.326815
  15856.498  15856.500  0.500  0.004592  23.586742  23.478676  6.296070
  15856.762  15856.800  0.500  0.005988  23.585458  23.444640  6.267770
  15857.081  15857.100  0.500  0.007718  23.582773  23.401472  6.236539
  15857.401  15857.400  0.500  0.009705  23.575066  23.347388  6.199282
  15857.687  15857.700  0.500  0.011506  23.576232  23.306523  6.165942
  15857.973  15858.000  0.500  0.013446  23.579577  23.264640  6.132950
  15858.282  15858.300  0.500  0.015454  23.578061  23.216483  6.094386
  15858.601  15858.600  0.500  0.017858  23.575380  23.158099  6.054705
  15858.876  15858.900  0.500  0.019950  23.574467  23.108813  6.016786
  15859.207  15859.200  0.500  0.022370  23.571602  23.050162  5.974025
  15859.493  15859.500  0.500  0.024905  23.579074  22.999081  5.933148
  15859.769  15859.800  0.500  0.027226  23.573440  22.940276  5.894834
  15860.077  15860.100  0.500  0.029854  23.574247  22.880867  5.852486
  15860.385  15860.400  0.500  0.032500  23.575836  22.821939  5.810539
  15860.661  15860.700  0.500  0.034944  23.568099  22.758767  5.769570
  15860.991  15861.000  0.500  0.037579  23.575196  22.705712  5.729661
  15861.289  15861.300  0.500  0.040415  23.574654  22.640871  5.687237
  15861.575  15861.600  0.500  0.042795  23.581506  22.593631  5.652087
  15861.862  15861.900  0.500  0.045237  23.574564  22.531873  5.616386
  15862.181  15862.200  0.500  0.047627  23.576248  22.479699  5.581115
  15862.457  15862.500  0.500  0.049524  23.578461  22.439202  5.551802
  15862.765  15862.800  0.500  0.051756  23.577547  22.388311  5.521922
  15863.107  15863.100  0.500  0.053707  23.570087  22.337611  5.492276
  15863.393  15863.400  0.500  0.055164  23.575580  22.310281  5.472174
  15863.680  15863.700  0.500  0.056483  23.576529  22.281757  5.452454
  15863.999  15864.000  0.500  0.057653  23.579955  22.258950  5.437675
  15864.275  15864.300  0.500  0.058486  23.578909  22.239427  5.425167
  15864.594  15864.600  0.500  0.059088  23.577634  22.224831  5.414295
  15864.903  15864.900  0.500  0.059436  23.575135  22.214746  5.406912
  15865.201  15865.200  0.500  0.059384  23.574588  22.215389  5.404938
  15865.498  15865.500  0.500  0.059172  23.572139  22.217801  5.404922
  15865.829  15865.800  0.500  0.058742  23.571483  22.226736  5.406438
  15866.082  15866.100  0.500  0.058175  23.569582  22.237536  5.411566
  15866.424  15866.400  0.500  0.057154  23.566248  22.257116  5.417382
  15866.711  15866.700  0.500  0.056221  23.570848  22.282242  5.427325
  15866.986  15867.000  0.500  0.054939  23.569119  22.309190  5.438185
  15867.295  15867.300  0.500  0.053715  23.568076  22.335514  5.449347
  15867.604  15867.600  0.500  0.052217  23.568490  22.369393  5.464412
  15867.901  15867.900  0.500  0.050623  23.562223  22.399130  5.477581
  15868.232  15868.200  0.500  0.048770  23.560943  22.439455  5.493246
  15868.508  15868.500  0.500  0.047268  23.559608  22.471905  5.507152
  15868.806  15868.800  0.500  0.045799  23.561925  22.507148  5.522501
  15869.103  15869.100  0.500  0.044381  23.557627  22.534979  5.535464
  15869.379  15869.400  0.500  0.042621  23.559219  22.576203  5.551921
  15869.688  15869.700  0.500  0.041136  23.558341  22.608908  5.567162
  15869.997  15870.000  0.500  0.039727  23.552553  22.635223  5.579227
  15870.272  15870.300  0.500  0.038195  23.556861  22.674074  5.592680
  15870.592  15870.600  0.500  0.036843  23.551069  22.699169  5.606495
  15870.868  15870.900  0.500  0.035620  23.548172  22.724157  5.617153
  15871.166  15871.200  0.500  0.034341  23.548850  22.753883  5.628566
  15871.486  15871.500  0.500  0.033028  23.544667  22.779731  5.639157
  15871.750  15871.800  0.500  0.032108  23.543776  22.799844  5.649064
  15872.092  15872.100  0.500  0.031097  23.544224  22.823338  5.658165
  15872.412  15872.400  0.500  0.030128  23.540360  22.841702  5.664278
  15872.666  15872.700  0.500  0.029403  23.534998  22.853072  5.668927
  15873.008  15873.000  0.500  0.028694  23.538550  22.872733  5.675900
  15873.295  15873.300  0.500  0.027886  23.529640  22.882562  5.679397
  15873.582  15873.600  0.500  0.027246  23.524710  22.892412  5.683022
  15873.902  15873.900  0.500  0.026742  23.525512  22.904736  5.685643
  15874.200  15874.200  0.500  0.026067  23.524600  22.919316  5.689530
  15874.498  15874.500  0.500  0.025579  23.519728  22.925745  5.691234
  15874.829  15874.800  0.500  0.025106  23.518024  22.934924  5.693647
  15875.116  15875.100  0.500  0.024664  23.516425  22.943513  5.696241
  15875.392  15875.400  0.500  0.024443  23.516466  22.948611  5.696575
  15875.723  15875.700  0.500  0.024051  23.514358  22.955562  5.696452
  15876.010  15876.000  0.500  0.023908  23.513611  22.958123  5.696494
  15876.297  15876.300  0.500  0.023531  23.510015  22.963270  5.695358
  15876.628  15876.600  0.500  0.023439  23.511681  22.967003  5.694472
  15876.915  15876.900  0.500  0.023194  23.509056  22.970056  5.693976
  15877.202  15877.200  0.500  0.022947  23.508896  22.975582  5.693823
  15877.511  15877.500  0.500  0.022917  23.507269  22.974684  5.692809
  15877.798  15877.800  0.500  0.022887  23.506864  22.974970  5.691879
  15878.096  15878.100  0.500  0.022749  23.503422  22.974789  5.691281
  15878.416  15878.400  0.500  0.022589  23.499220  22.974345  5.688863
  15878.692  15878.700  0.500  0.022726  23.500824  22.972759  5.686509
  15878.990  15879.000  0.500  0.022677  23.492051  22.965317  5.686117
  15879.288  15879.300  0.500  0.022668  23.492704  22.966158  5.683454
  15879.587  15879.600  0.500  0.022747  23.492793  22.964439  5.682061
  15879.874  15879.900  0.500  0.022792  23.488301  22.959005  5.681247
  15880.194  15880.200  0.500  0.022835  23.486218  22.955990  5.678487
  15880.492  15880.500  0.500  0.022875  23.484851  22.953725  5.677050
  15880.768  15880.800  0.500  0.023044  23.483919  22.948931  5.677534
  15881.100  15881.100  0.500  0.022991  23.475533  22.941971  5.676194
  15881.376  15881.400  0.500  0.023412  23.479985  22.936660  5.675098
  15881.674  15881.700  0.500  0.023403  23.473882  22.930893  5.673962
  15882.005  15882.000  0.500  0.023714  23.467845  22.917885  5.673749
  15882.292  15882.300  0.500  0.023850  23.468058  22.914969  5.673760
  15882.580  15882.600  0.500  0.024106  23.467784  22.908823  5.674453
  15882.889  15882.900  0.500  0.024394  23.509969  22.943404  5.683547
  15883.198  15883.200  0.500  0.024520  23.544109  22.973832  5.694093
  15883.497  15883.500  0.500  0.024737  23.537433  22.962323  5.692206
  15883.806  15883.800  0.500  0.025064  23.533292  22.950780  5.689663
  15884.115  15884.100  0.500  0.025251  23.530280  22.943552  5.692301
  15884.414  15884.400  0.500  0.025678  23.529987  22.933471  5.691694
  15884.701  15884.700  0.500  0.026112  23.534018  22.927453  5.693584
  15885.010  15885.000  0.500  0.026149  23.529390  22.922084  5.693020
  15885.309  15885.300  0.500  0.026434  23.526317  22.912580  5.692646
  15885.607  15885.600  0.500  0.026807  23.525216  22.902958  5.693055
  15885.828  15885.800  0.500  0.027051  23.522884  22.895085  5.692817
  15886.812  15886.790  0.500  0.028097  23.514307  22.862826  5.691751
  15887.851  15887.790  0.500  0.029239  23.509500  22.832068  5.689568
  15888.845  15888.810  0.500  0.029953  23.501712  22.808193  5.687458
  15889.874  15889.860  0.500  0.030845  23.493796  22.780187  5.684806
  15890.902  15890.920  0.500  0.031438  23.489631  22.762646  5.681790
  15891.997  15892.000  0.500  0.031773  23.482304  22.747934  5.677054
  15893.125  15893.100  0.500  0.031969  23.475508  22.736899  5.673824
  15894.242  15894.220  0.500  0.031678  23.466507  22.734781  5.672036
  15895.371  15895.360  0.500  0.031501  23.462945  22.735352  5.668171
  15896.544  15896.510  0.500  0.031129  23.458508  22.739518  5.664314
  15897.750  15897.690  0.500  0.030230  23.446767  22.748586  5.659688
  15898.901  15898.880  0.500  0.029670  23.440387  22.755131  5.659138
  15900.086  15900.100  0.500  0.029127  23.431409  22.758764  5.655598
  15901.326  15901.330  0.500  0.028421  23.424664  22.768279  5.654509
  15902.588  15902.580  0.500  0.027805  23.411969  22.769976  5.654053
  15903.829  15903.850  0.500  0.027458  23.409232  22.775211  5.656348
  15905.180  15905.140  0.500  0.026865  23.396070  22.775899  5.656840
  15906.498  15906.450  0.500  0.026491  23.387269  22.775850  5.660919
  15907.817  15907.780  0.500  0.026066  23.372367  22.771023  5.664153
  15909.158  15909.130  0.500  0.025592  23.358020  22.767819  5.670096
  15910.544  15910.500  0.500  0.025252  23.299284  22.718289  5.664672
  15911.874  15911.880  0.500  0.024791  23.138702  22.572132  5.633516
  15913.271  15913.290  0.500  0.024157  23.166183  22.613265  5.652721
  15914.713  15914.710  0.500  0.023798  23.306460  22.758371  5.691558
  15916.188  15916.150  0.500  0.023585  23.346171  22.801983  5.705102
  15917.642  15917.610  0.500  0.023415  23.337361  22.797264  5.706259
  15919.140  15919.090  0.500  0.023211  23.326712  22.791523  5.703900
  15920.605  15920.590  0.500  0.023385  23.316731  22.777791  5.699466
  15922.103  15922.110  0.500  0.023559  23.309730  22.766988  5.697799
  15923.669  15923.650  0.500  0.023610  23.291971  22.748483  5.689755
  15925.190  15925.210  0.500  0.024125  23.288496  22.733390  5.686896
  15926.779  15926.780  0.500  0.024223  23.271494  22.714551  5.681201
  15928.412  15928.380  0.500  0.024579  23.267998  22.703059  5.678052
  15930.023  15929.990  0.500  0.024674  23.257912  22.691062  5.676273
  15931.679  15931.630  0.500  0.024711  23.248221  22.680764  5.675110
  15933.280  15933.280  0.500  0.024610  23.234594  22.669774  5.673393
  15934.926  15934.950  0.500  0.024566  23.222092  22.658571  5.674889
  15936.616  15936.640  0.500  0.024343  23.207257  22.649150  5.675792
  15938.373  15938.350  0.500  0.024126  23.195124  22.642206  5.676263
  15940.087  15940.080  0.500  0.023858  23.190540  22.643801  5.681250
  15941.845  15941.830  0.500  0.023529  23.177311  22.638340  5.682795
  15943.615  15943.590  0.500  0.023190  23.166198  22.635157  5.685734
  15945.374  15945.380  0.500  0.022926  23.151715  22.626969  5.688029
  15947.145  15947.180  0.500  0.022616  23.122897  22.605826  5.686013
  15948.994  15949.010  0.500  0.022459  22.989830  22.479249  5.655408
  15950.865  15950.850  0.500  0.022067  22.932467  22.431954  5.647489
  15952.749  15952.710  0.500  0.021842  23.085589  22.586819  5.688766
  15954.599  15954.590  0.500  0.021668  23.105760  22.610494  5.694707
  15956.505  15956.490  0.500  0.021505  23.095841  22.604466  5.693845
  15958.401  15958.410  0.500  0.021007  23.080552  22.600755  5.694870
  15960.331  15960.350  0.500  0.020695  23.070575  22.598028  5.695308
  15962.261  15962.310  0.500  0.020342  23.060051  22.595703  5.696132
  15964.259  15964.280  0.500  0.020037  23.045619  22.588460  5.697013
  15966.246  15966.280  0.500  0.019580  23.027270  22.580772  5.697092
  15968.244  15968.290  0.500  0.019345  23.020093  22.579053  5.699161
  15970.244  15970.320  0.500  0.019170  23.006178  22.569349  5.698807
  15972.321  15972.380  0.500  0.018708  22.984924  22.558929  5.699254
  15974.411  15974.450  0.500  0.018739  22.979016  22.552431  5.700821
  15976.512  15976.540  0.500  0.018538  22.966746  22.544913  5.700538
  15978.894  15978.650  0.500  0.018389  22.945541  22.527459  5.700085
  15980.683  15980.780  0.500  0.018076  22.924914  22.514254  5.697711
  15983.211  15982.920  0.500  0.017993  22.891748  22.483547  5.695224
  15985.068  15985.090  0.500  0.017746  22.738130  22.338171  5.658960
  15987.553  15987.280  0.500  0.017503  22.783162  22.387849  5.677321
  15989.535  15989.480  0.500  0.017390  22.875697  22.481321  5.702537
  15991.763  15991.700  0.500  0.017097  22.864641  22.477053  5.704717
  15994.060  15993.950  0.500  0.017008  22.847651  22.462338  5.702635
  15996.121  15996.210  0.500  0.016697  22.830928  22.452876  5.703849
  15998.453  15998.490  0.500  0.016586  22.815261  22.439974  5.703504
  16000.706  16000.790  0.500  0.016294  22.800450  22.431961  5.703815
  16003.027  16003.110  0.500  0.015987  22.788339  22.426919  5.706877
  16005.349  16005.450  0.500  0.015762  22.775239  22.419070  5.707207
  16007.739  16007.800  0.500  0.015428  22.757869  22.409454  5.706521
  16010.119  16010.180  0.500  0.015281  22.747800  22.402843  5.709561
  16012.533  16012.570  0.500  0.014979  22.726459  22.388572  5.708852
  16014.925  16014.990  0.500  0.014535  22.712121  22.384378  5.709270
  16017.374  16017.420  0.500  0.014305  22.698750  22.376345  5.711208
  16019.847  16019.870  0.500  0.014047  22.670970  22.354726  5.709749
  16022.320  16022.350  0.500  0.013593  22.638253  22.332613  5.705634
  16024.782  16024.840  0.500  0.013408  22.423214  22.124579  5.654259
  16027.302  16027.350  0.500  0.013292  22.544949  22.247270  5.690895
  16029.845  16029.870  0.500  0.012777  22.584903  22.298182  5.706487
  16032.400  16032.420  0.500  0.012408  22.598514  22.319834  5.714600
  16034.956  16034.990  0.500  0.012160  22.601420  22.328242  5.720921
  16037.558  16037.570  0.500  0.011860  22.594081  22.327705  5.722619
  16040.183  16040.180  0.500  0.011566  22.577809  22.318172  5.722678
  16042.775  16042.800  0.500  0.011185  22.559130  22.308215  5.723123
  16045.425  16045.450  0.500  0.010995  22.542986  22.296489  5.723410
  16048.086  16048.110  0.500  0.010724  22.523311  22.283052  5.722898
  16050.737  16050.790  0.500  0.010439  22.505574  22.271871  5.722698
  16053.480  16053.490  0.500  0.010135  22.496115  22.269271  5.725974
  16056.223  16056.210  0.500  0.010163  22.483071  22.255725  5.726265
  16058.956  16058.950  0.500  0.009695  22.464367  22.247633  5.726077
  16061.701  16061.700  0.500  0.009422  22.443215  22.232740  5.724933
  16064.470  16064.480  0.500  0.009088  22.433355  22.230402  5.728628
  16067.262  16067.270  0.500  0.008983  22.410319  22.209915  5.728229
  16070.067  16070.090  0.500  0.008704  22.388176  22.194161  5.726048
  16072.906  16072.920  0.500  0.008213  22.378642  22.195595  5.730177
  16075.769  16075.770  0.500  0.008046  22.328554  22.149620  5.722393
  16078.634  16078.650  0.500  0.007646  22.316212  22.146237  5.725061
  16081.556  16081.540  0.500  0.007261  22.330719  22.169165  5.733106
  16084.445  16084.450  0.500  0.007004  22.316870  22.161108  5.733909
  16087.391  16087.370  0.500  0.006738  22.295478  22.145761  5.732893
  16090.294  16090.320  0.500  0.006438  22.284278  22.141263  5.734218
  16093.277  16093.290  0.500  0.006018  22.262416  22.128846  5.733730
  16096.283  16096.270  0.500  0.005835  22.247022  22.117599  5.736173
  16099.291  16099.280  0.500  0.005355  22.211952  22.093319  5.732400
  16102.300  16102.300  0.500  0.005127  22.204887  22.091344  5.736611
  16105.344  16105.350  0.500  0.004769  22.198751  22.093127  5.740431
  16108.412  16108.410  0.500  0.004318  22.179564  22.083994  5.739440
  16111.493  16111.490  0.500  0.004103  22.157446  22.066712  5.740250
  16114.575  16114.590  0.500  0.003748  22.137766  22.054947  5.741503
  16117.669  16117.710  0.500  0.003325  22.124640  22.051206  5.743023
  16120.833  16120.850  0.500  0.002862  22.096309  22.033164  5.742164
  16124.009  16124.000  0.500  0.002728  22.029928  21.969917  5.730904
  16127.176  16127.180  0.500  0.002285  22.068869  22.018495  5.749147
  16130.355  16130.370  0.500  0.001878  22.048462  22.007090  5.747861
  16133.558  16133.590  0.500  0.001674  22.029169  21.992323  5.747829
  16136.785  16136.820  0.500  0.001280  22.011290  21.983125  5.748568
  16140.070  16140.070  0.500  0.001088  22.001794  21.977860  5.751704
  16143.392  16143.350  0.500  0.000732  21.957231  21.941156  5.746854
  16146.668  16146.640  0.500  0.000348  21.930070  21.922429  5.744438
  16149.935  16149.950  0.500  -0.000009  21.936970  21.937164  5.752025
  16153.260  16153.270  0.500  -0.000534  21.911751  21.923461  5.752776
  16156.633  16156.620  0.500  -0.000681  21.914387  21.929322  5.757909
  16160.006  16159.990  0.500  -0.001208  21.903901  21.930366  5.761539
  16163.370  16163.370  0.500  -0.001603  21.883089  21.918187  5.762564
  16166.747  16166.780  0.500  -0.001877  21.857619  21.898695  5.762123
  16170.182  16170.200  0.500  -0.002291  21.838128  21.888214  5.763086
  16173.676  16173.650  0.500  -0.002634  21.764922  21.822328  5.750089
  16177.137  16177.110  0.500  -0.002898  21.805289  21.868575  5.767528
  16180.600  16180.590  0.500  -0.003477  21.781008  21.856862  5.767707
  16184.041  16184.090  0.500  -0.003793  21.762452  21.845157  5.768738
  16187.621  16187.610  0.500  -0.004141  21.742636  21.832855  5.769896
  16191.192  16191.150  0.500  -0.004514  21.716726  21.814966  5.769320
  16194.718  16194.700  0.500  -0.004898  21.697738  21.804274  5.770075
  16198.280  16198.280  0.500  -0.005421  21.675826  21.793656  5.771480
  16201.867  16201.880  0.500  -0.005606  21.657532  21.779293  5.775100
  16205.513  16205.490  0.500  -0.005982  21.647834  21.777718  5.777488
  16209.114  16209.120  0.500  -0.006415  21.624812  21.763990  5.777515
  16212.787  16212.780  0.500  -0.006866  21.603542  21.752377  5.778190
  16216.438  16216.450  0.500  -0.007199  21.581020  21.736948  5.778409
  16220.125  16220.140  0.500  -0.007706  21.553156  21.719893  5.778378
  16223.859  16223.850  0.500  -0.007991  21.543021  21.715868  5.780089
  16227.631  16227.580  0.500  -0.008385  21.514281  21.695444  5.780951
  16231.346  16231.320  0.500  -0.008884  21.489498  21.681253  5.782254
  16235.075  16235.090  0.500  -0.009193  21.436046  21.634023  5.772357
  16238.897  16238.880  0.500  -0.009622  21.440655  21.647953  5.779969
  16242.687  16242.680  0.500  -0.009997  21.429543  21.644849  5.784520
  16246.560  16246.510  0.500  -0.010396  21.411523  21.635287  5.786837
  16250.353  16250.350  0.500  -0.010843  21.373974  21.606991  5.783555
  16254.195  16254.210  0.500  -0.011250  21.338248  21.579666  5.779977
  16258.119  16258.090  0.500  -0.011578  21.340135  21.588638  5.787903
  16261.999  16261.990  0.500  -0.011986  21.322459  21.579567  5.789635
  16265.950  16265.910  0.500  -0.012409  21.304461  21.570464  5.791134
  16269.822  16269.850  0.500  -0.012747  21.275723  21.548670  5.791510
  16273.801  16273.810  0.500  -0.013291  21.253483  21.537857  5.791744
  16277.781  16277.780  0.500  -0.013918  21.237863  21.535525  5.794338
  16281.833  16281.780  0.500  -0.014178  21.215405  21.518349  5.795777
  16285.794  16285.790  0.500  -0.014687  21.188005  21.501488  5.794890
  16289.804  16289.830  0.500  -0.014971  21.167347  21.486620  5.795556
  16293.908  16293.880  0.500  -0.015412  21.148220  21.476687  5.796978
  16298.003  16297.950  0.500  -0.015877  21.122280  21.460309  5.798842
  16302.031  16302.040  0.500  -0.016323  21.099354  21.446589  5.798502
  16306.153  16306.150  0.500  -0.016724  21.020291  21.374799  5.783671
  16310.266  16310.280  0.500  -0.017072  21.051133  21.413594  5.800055
  16314.463  16314.430  0.500  -0.017517  21.027526  21.399115  5.800722
  16318.638  16318.590  0.500  -0.018105  20.994089  21.377647  5.798833
  16322.781  16322.780  0.500  -0.018473  20.980555  21.371737  5.802422
  16327.007  16326.980  0.500  -0.018777  20.956758  21.353983  5.801920
  16331.212  16331.210  0.500  -0.019283  20.928077  21.335553  5.802020
  16335.478  16335.450  0.500  -0.019732  20.912655  21.329406  5.804648
  16339.700  16339.710  0.500  -0.020062  20.891795  21.315148  5.807748
  16343.993  16343.990  0.500  -0.020495  20.869721  21.301860  5.808076
  16348.336  16348.290  0.500  -0.020877  20.845538  21.285301  5.808577
  16352.658  16352.610  0.500  -0.021404  20.821340  21.271796  5.810214
  16356.959  16356.950  0.500  -0.021833  20.799276  21.258386  5.809582
  16361.332  16361.310  0.500  -0.022343  20.768220  21.237460  5.808483
  16365.731  16365.690  0.500  -0.022940  20.750750  21.232266  5.813271
  16370.086  16370.080  0.500  -0.023330  20.695977  21.184500  5.806261
  16374.513  16374.500  0.500  -0.023771  20.637515  21.133973  5.797008
  16378.954  16378.930  0.500  -0.024109  20.678233  21.182830  5.815752
  16383.410  16383.380  0.500  -0.024651  20.654358  21.169844  5.816199
  16387.892  16387.850  0.500  -0.025147  20.622654  21.147830  5.815098
  16392.341  16392.340  0.500  -0.025372  20.604786  21.134261  5.816139
  16396.827  16396.850  0.500  -0.026037  20.572833  21.115524  5.817353
  16401.411  16401.380  0.500  -0.026506  20.537094  21.088732  5.813567
  16405.973  16405.930  0.500  -0.027052  20.524054  21.086840  5.818146
  16410.514  16410.500  0.500  -0.027254  20.511237  21.077948  5.821134
  16415.082  16415.080  0.500  -0.027596  20.480668  21.053730  5.820005
  16419.735  16419.690  0.500  -0.028483  20.442663  21.033300  5.817937
  16424.343  16424.310  0.500  -0.028767  20.430450  21.026708  5.821765
  16428.930  16428.960  0.500  -0.029294  20.406906  21.013541  5.823849
  16433.614  16433.620  0.500  -0.029561  20.381417  20.992897  5.823765
  16438.301  16438.300  0.500  -0.030012  20.339501  20.959174  5.818680
  16443.014  16443.000  0.500  -0.030595  20.284601  20.914804  5.811995
  16447.719  16447.720  0.500  -0.031190  20.298866  20.941972  5.823218
  16452.497  16452.460  0.500  -0.031498  20.273638  20.922370  5.825187
  16457.230  16457.210  0.500  -0.032030  20.247959  20.907000  5.826231
  16462.014  16461.990  0.500  -0.032468  20.222136  20.889484  5.825837
  16466.812  16466.790  0.500  -0.033161  20.200003  20.881081  5.828326
  16471.649  16471.600  0.500  -0.033621  20.175185  20.865021  5.831348
  16476.429  16476.430  0.500  -0.033976  20.150050  20.846441  5.829366
  16481.308  16481.290  0.500  -0.034531  20.122313  20.829288  5.831332
  16486.201  16486.160  0.500  -0.035041  20.093526  20.810110  5.830252
  16491.097  16491.050  0.500  -0.035494  20.072705  20.797953  5.833808
  16495.984  16495.960  0.500  -0.036002  20.045581  20.780419  5.834212
  16500.909  16500.890  0.500  -0.036210  20.019963  20.758165  5.834270
  16505.898  16505.830  0.500  -0.036988  19.989078  20.742271  5.833755
  16510.841  16510.800  0.500  -0.037481  19.964088  20.726555  5.834480
  16515.824  16515.790  0.500  -0.037963  19.936633  20.708028  5.835176
  16520.809  16520.790  0.500  -0.038311  19.912082  20.689730  5.835927
  16525.858  16525.820  0.500  -0.038909  19.880593  20.669363  5.835799
  16530.873  16530.860  0.500  -0.039331  19.854608  20.651068  5.835888
  16535.904  16535.920  0.500  -0.039876  19.827465  20.634078  5.836170
  16541.021  16541.000  0.500  -0.040419  19.794245  20.610692  5.835524
  16546.142  16546.100  0.500  -0.041004  19.741825  20.568150  5.828645
  16551.218  16551.220  0.500  -0.041338  19.749782  20.583309  5.838443
  16556.381  16556.360  0.500  -0.041896  19.723934  20.567841  5.841330
  16561.548  16561.520  0.500  -0.042329  19.687091  20.538310  5.836990
  16566.729  16566.700  0.500  -0.042990  19.664664  20.528488  5.839955
  16571.914  16571.890  0.500  -0.043593  19.635686  20.510589  5.841087
  16577.175  16577.110  0.500  -0.043889  19.611904  20.491816  5.840809
  16582.378  16582.340  0.500  -0.044456  19.562860  20.452169  5.835706
  16587.585  16587.590  0.500  -0.045040  19.551093  20.451800  5.839346
  16592.868  16592.860  0.500  -0.045439  19.512149  20.419222  5.837137
  16598.202  16598.150  0.500  -0.046031  19.492746  20.410998  5.840019
  16603.516  16603.460  0.500  -0.046452  19.459231  20.384471  5.836902
  16608.833  16608.790  0.500  -0.047017  19.429717  20.365063  5.838193
  16614.214  16614.140  0.500  -0.047576  19.404632  20.350134  5.840222
  16619.574  16619.510  0.500  -0.047965  19.371137  20.322918  5.838573
  16624.901  16624.890  0.500  -0.048613  19.346562  20.310288  5.839268
  16630.341  16630.300  0.500  -0.049066  19.316035  20.287422  5.839187
  16635.772  16635.720  0.500  -0.049580  19.291891  20.272499  5.841829
  16641.232  16641.170  0.500  -0.050160  19.256903  20.247457  5.839008
  16646.658  16646.630  0.500  -0.050792  19.225881  20.227631  5.837889
  16652.173  16652.110  0.500  -0.051268  19.193626  20.203299  5.837017
  16657.692  16657.610  0.500  -0.051651  19.164022  20.179879  5.836406
  16663.177  16663.130  0.500  -0.052227  19.130883  20.156593  5.835565
  16668.667  16668.670  0.500  -0.052813  19.096219  20.131862  5.834029
  16674.282  16674.220  0.500  -0.053216  19.065093  20.107144  5.834306
  16679.840  16679.800  0.500  -0.053894  19.026832  20.080398  5.831153
  16685.401  16685.400  0.500  -0.054365  18.994246  20.055454  5.830565
  16691.076  16691.010  0.500  -0.054845  18.952509  20.021000  5.825540
  16696.694  16696.650  0.500  -0.055454  18.907588  19.985708  5.821542
  16702.341  16702.300  0.500  -0.055969  18.830544  19.914528  5.807809
  16708.003  16707.970  0.500  -0.056635  18.717935  19.808624  5.782835
  16713.718  16713.660  0.500  -0.057267  18.075794  19.141159  5.588908
