# XDI/1.0 BlueSky/1.10.0 BMM/2023-1.0-py310-tiled
# Beamline.name: BMM (06BM) -- Beamline for Materials Measurement (NIST)
# Beamline.xray_source: NSLS-II three-pole wiggler
# Beamline.collimation: paraboloid mirror, 5 nm Rh on 30 nm Pt
# Beamline.focusing: not in use
# Beamline.harmonic_rejection: flat mirror, Si stripe, pitch = 7.0 mrad relative to beam
# Beamline.software: Bluesky 1.10.0, Ophyd 1.7.0, DataBroker 2.0.0b13, Python 3.10.8, 2023-1.0-py310-tiled
# Detector.I0: 10 cm N2
# Detector.I1: 25 cm N2
# Detector.I2: 25 cm N2
# Detector.fluorescence: SII Vortex ME4 (4-element silicon drift)
# Detector.deadtime_correction: Xspress3
# Element.symbol: Fe
# Element.edge: K
# Element.reference: Fe
# Element.reference_material: Fe foil
# Facility.name: NSLS-II
# Facility.energy: 3.0
# Facility.current: 400.1
# Facility.mode: top-off
# Facility.GUP: 301027
# Facility.SAF: 310583
# Facility.cycle: 2023-2
# Mono.name: Si(111)
# Mono.d_spacing: 3.1351860
# Mono.encoder_resolution: 0.0000050 deg/ct
# Mono.angle_offset: 16.0754326 deg
# Mono.scan_mode: pseudo channel cut
# Mono.scan_type: step
# Mono.direction: forward in energy
# Sample.name: Ca(Zn,Mn,Fe,Mg)Si2O6
# Sample.prep: powder on tape
# Sample.x: 119.711 mm
# Sample.y: 114.376 mm
# Sample.SDD_position: 25.000 mm
# Scan.experimenters: Bruce Ravel
# Scan.edge_energy: 7112.0
# Scan.start_time: 2023-06-27T10:25:12
# Scan.end_time: 2023-06-27T10:42:39
# Scan.transient_id: 85117
# Scan.uid: 02ad399c-7d5d-432b-9c44-3b78d3ef97ef
# Scan.plot_hint: (Fe1+Fe2+Fe3+Fe4)/I0  --  ($8+$9+$10+$11)/$5
# Column.1: energy eV
# Column.2: requested_energy eV
# Column.3: measurement_time seconds
# Column.4: xmu 
# Column.5: I0 nA
# Column.6: It nA
# Column.7: Ir nA
# Column.8: Fe1 
# Column.9: Fe2 
# Column.10: Fe3 
# Column.11: Fe4 
# ///////////
# sample courtesy Martin Stennett, University of Sheffield
# -----------
# energy  requested_energy  measurement_time  xmu  I0  It  Ir  Fe1  Fe2  Fe3  Fe4
  6912.001  6912.000  2.000  20.824166  591.613657  224.975095  41.035000  3508.898187  3111.327623  2606.277032  3093.358212
  6922.011  6922.000  2.000  20.654225  592.005109  226.683813  41.644609  3454.452134  3151.331717  2538.266249  3083.356398
  6932.019  6932.000  2.000  20.560313  592.782058  228.597675  42.298935  3497.834272  3124.329988  2643.281081  2922.339029
  6942.015  6942.000  2.000  20.464363  593.733685  230.575214  42.971282  3414.417812  3264.347184  2510.269431  2961.346941
  6952.018  6952.000  2.000  20.447877  594.525516  232.505089  43.640703  3441.819542  3030.323392  2642.283287  3042.358201
  6962.014  6962.000  2.000  20.409995  595.440101  234.486875  44.320633  3526.960883  3115.338053  2592.282932  2918.347412
  6972.010  6972.000  2.000  20.346416  596.471892  236.526708  45.023794  3470.074029  3150.348547  2546.282192  2969.360463
  6982.012  6982.000  2.000  20.041463  597.112179  238.335406  45.682008  3376.021381  3107.340001  2603.289682  2880.350468
  6992.006  6992.000  2.000  20.056627  597.900750  240.340742  46.386545  3321.872334  3110.346726  2524.281884  3035.371322
  7002.004  7002.000  2.000  20.297362  598.516667  242.215150  47.067581  3324.274279  3109.351920  2619.297880  3095.385086
  7012.004  7012.000  2.000  20.249202  599.050249  244.090587  47.753005  3359.254805  3172.360777  2590.296136  3008.377665
  7022.005  7022.000  2.000  19.817958  599.670715  245.963486  48.437660  3349.233371  3080.354125  2542.293747  2912.368015
  7032.004  7032.000  2.000  20.030401  600.156150  247.836257  49.124403  3363.333038  3144.360344  2575.301359  2938.373762
  7042.002  7042.000  2.000  20.001924  600.611537  249.661128  49.801254  3363.333038  3174.372394  2629.312922  2846.367823
  7052.003  7052.000  2.000  20.027369  600.933945  251.459324  50.466536  3369.070270  3042.356374  2634.311195  2989.387911
  7062.002  7062.000  2.000  20.458272  601.562725  253.409500  51.148820  3332.827467  3169.376106  2808.337089  2996.392997
  7072.003  7072.000  2.000  20.411950  601.323139  254.958573  51.720529  3430.084790  3184.379479  2708.325101  2951.388773
  7081.997  7082.000  2.000  20.329236  601.827322  256.815570  52.294781  3380.579302  3171.382548  2689.327158  2993.400387
  7084.000  7084.000  2.000  20.450997  597.184547  255.126940  51.976979  3362.908165  3143.380526  2702.328131  3004.402309
  7085.997  7086.000  2.000  20.183097  601.328119  257.191349  52.417106  3333.557664  3143.380526  2751.335475  2908.389925
  7088.005  7088.000  2.000  21.120769  601.511567  257.629128  52.516980  3532.239794  3213.386811  2864.348127  3094.411867
  7090.000  7090.000  2.000  20.579109  601.596915  258.005413  52.594517  3433.200444  3209.387995  2706.331036  3031.409203
  7091.999  7092.000  2.000  20.562504  601.547751  258.304503  52.645214  3433.200444  3209.387995  2706.331036  3020.408455
  7093.997  7094.000  2.000  20.793748  601.469111  258.616376  52.679059  3471.647761  3151.388350  2783.342230  3100.418829
  7096.005  7096.000  2.000  20.695448  601.434420  258.938161  52.692030  3394.810412  3151.388350  2819.345089  3081.410676
  7098.003  7098.000  2.000  20.965729  601.501199  259.325304  52.687594  3496.762020  3171.384986  2868.351482  3074.412837
  7100.001  7100.000  2.000  21.068780  601.597200  259.737898  52.648071  3313.730079  3273.402322  2891.351842  3196.435076
  7101.999  7102.000  2.000  21.405753  601.561242  259.980269  52.505169  3453.673226  3260.397667  2926.362211  3236.438174
  7102.301  7102.300  2.000  21.783246  601.479194  260.015050  52.475476  3544.954682  3261.396769  3043.377037  3252.440524
  7102.596  7102.600  2.000  21.500803  601.426150  260.020622  52.441993  3495.942528  3350.409776  2884.357625  3200.434980
  7102.891  7102.900  2.000  21.154646  601.420836  260.044836  52.405074  3430.670876  3285.398704  2891.355692  3115.419823
  7103.197  7103.200  2.000  21.582494  601.746589  260.230401  52.397480  3487.975118  3296.407271  3028.378927  3174.431029
  7103.490  7103.500  2.000  21.195704  603.148653  260.920712  52.487232  3468.965496  3236.401233  2952.366427  3126.427208
  7103.798  7103.800  2.000  21.869183  603.068098  260.896927  52.427082  3485.352225  3365.419815  2933.366525  3404.468137
  7104.099  7104.100  2.000  21.903922  603.078489  260.970607  52.387767  3515.537884  3470.429617  2960.369270  3263.447297
  7104.401  7104.400  2.000  21.653218  603.045380  260.996289  52.330466  3412.639949  3411.420116  3002.371300  3231.441719
  7104.698  7104.700  2.000  21.750405  603.000126  260.975799  52.265401  3474.267769  3371.413377  3031.373883  3238.441887
  7105.004  7105.000  2.000  21.871406  602.966075  261.060339  52.209828  3562.491271  3528.432255  2933.360786  3163.431493
  7105.298  7105.300  2.000  22.084061  602.969187  261.128861  52.148558  3606.756020  3404.423829  3015.375905  3289.452815
  7105.597  7105.600  2.000  21.535307  602.901700  261.111504  52.059205  3428.441644  3340.416404  2948.366446  3266.448689
  7105.897  7105.900  2.000  22.159878  602.918723  261.163660  51.978478  3628.351254  3459.427542  3003.376812  3269.449775
  7106.201  7106.200  2.000  22.303915  602.895649  261.235996  51.889494  3514.667059  3589.439415  3034.375865  3308.450716
  7106.501  7106.500  2.000  22.204915  602.875405  261.236868  51.783435  3603.541520  3529.434848  2962.369927  3291.450724
  7106.802  7106.800  2.000  22.628125  602.862041  261.283273  51.672104  3563.333392  3469.432074  3181.399068  3427.473378
  7107.102  7107.100  2.000  22.402188  602.781037  261.317995  51.548788  3563.333392  3585.446074  3025.379951  3329.454576
  7107.406  7107.400  2.000  22.898205  602.729101  261.294606  51.392095  3619.099584  3505.432110  3222.407334  3454.475337
  7107.706  7107.700  2.000  22.498275  602.759068  261.412299  51.245656  3690.768888  3494.431300  3058.381419  3317.457810
  7108.008  7108.000  2.000  22.732192  602.728599  261.520819  51.069295  3726.057328  3503.436222  3139.391051  3332.457402
  7108.306  7108.300  2.000  23.201821  602.688246  261.498060  50.850437  3761.144658  3657.455468  3189.400490  3375.464423
  7108.606  7108.600  2.000  23.157297  602.676864  261.555544  50.607866  3696.037790  3631.453841  3208.402816  3420.472689
  7108.908  7108.900  2.000  23.433051  602.628715  261.574659  50.321043  3747.080262  3627.453885  3250.408252  3496.486931
  7109.208  7109.200  2.000  23.653402  602.612524  261.617725  49.983417  3817.489092  3686.459195  3194.396545  3555.491304
  7109.503  7109.500  2.000  23.914856  602.626708  261.657782  49.579671  3742.326782  3794.481259  3271.421115  3603.501811
  7109.803  7109.800  2.000  24.471274  602.544651  261.665690  49.055595  3878.627136  3862.483148  3328.416240  3675.508439
  7110.099  7110.100  2.000  24.701206  602.524031  261.797529  48.417027  3878.627136  3819.482520  3482.442358  3702.518331
  7110.406  7110.400  2.000  25.124797  602.465729  261.733557  47.500259  4050.384609  3819.482520  3419.429460  3847.532740
  7110.706  7110.700  2.000  26.719901  602.403578  261.735436  46.316547  4218.614060  4180.526903  3710.467219  3986.556001
  7111.010  7111.000  2.000  27.564139  602.278981  261.761072  44.643134  4465.688580  4346.555707  3740.484558  4048.572799
  7111.304  7111.300  2.000  29.177241  602.231682  261.795535  42.366083  4586.750690  4643.588633  4124.527683  4216.592196
  7111.608  7111.600  2.000  31.975584  602.146687  261.779829  39.137103  5002.084824  5081.655311  4538.592203  4631.659926
  7111.911  7111.900  2.000  35.159281  602.035544  261.769403  35.308625  5442.998217  5585.735397  4974.655630  5163.747551
  7112.209  7112.200  2.000  38.986018  601.977537  261.793043  31.436429  5937.310199  6067.803188  5630.749736  5832.844088
  7112.507  7112.500  2.000  42.190085  601.867035  261.852909  28.133880  6519.191246  6572.882820  6086.828686  6213.918769
  7112.811  7112.800  2.000  43.570575  601.827110  261.844234  25.586378  6519.191246  6572.882820  6560.902947  6568.976440
  7113.107  7113.100  2.000  47.014415  601.736611  261.762224  23.696497  6892.249690  7484.029101  6886.957160  7027.058673
  7113.414  7113.400  2.000  48.973348  601.681773  261.795242  22.197298  7511.217563  7625.058549  7098.993329  7231.101390
  7113.706  7113.700  2.000  51.307991  601.643896  261.794081  21.000939  7846.828344  8054.123399  7447.040680  7521.147495
  7114.010  7114.000  2.000  52.549826  601.599923  261.847856  19.906685  7994.545723  8243.160843  7720.091383  7656.173455
  7114.302  7114.300  2.000  54.698032  601.636773  261.913463  18.966931  8363.748109  8577.213515  7907.132156  8060.253423
  7114.613  7114.600  2.000  55.700134  601.685085  262.009559  18.081672  8485.275886  8601.216642  8084.150934  8343.296239
  7114.914  7114.900  2.000  56.976913  601.656674  262.050033  17.340923  8637.802968  8951.257987  8317.182811  8374.296449
  7115.223  7115.200  2.000  58.493579  601.665413  262.093505  16.731276  8781.657691  9167.308576  8541.240619  8703.356639
  7115.500  7115.500  2.000  58.483601  601.702665  262.125938  16.283665  8789.847993  9178.312441  8599.235176  8622.342987
  7115.817  7115.800  2.000  59.153851  601.638989  262.151804  15.905173  8938.308238  9352.350012  8503.216016  8795.388961
  7116.114  7116.100  2.000  59.759532  601.660518  262.248148  15.658894  9050.987086  9325.330608  8794.264729  8784.368663
  7116.421  7116.400  2.000  60.406202  601.724180  262.357502  15.470900  9020.802741  9610.383054  8847.284795  8869.401813
  7116.715  7116.700  2.000  60.501513  601.667184  262.322317  15.330274  9122.717630  9472.361593  8847.282472  8959.413519
  7117.024  7117.000  2.000  60.937587  601.663103  262.373012  15.161833  9159.760267  9542.389372  8879.305816  9082.442409
  7117.318  7117.300  2.000  61.760408  601.648760  262.399787  14.951988  9386.925551  9699.406353  9054.310672  9017.430450
  7117.739  7117.600  2.000  63.233582  601.545872  262.402356  14.564046  9444.600100  10026.462798  9228.353226  9338.484239
  7117.982  7117.900  2.000  63.648485  601.551762  262.466236  14.129877  9719.514602  9944.470352  9254.372369  9369.501057
  7118.259  7118.200  2.000  66.283834  601.460510  262.415826  13.499914  9774.542826  10471.534538  9811.451547  9809.579530
  7118.528  7118.500  2.000  69.005026  601.386666  262.502489  12.683284  10326.921358  10823.612380  10131.505799  10216.662702
  7118.826  7118.800  2.000  70.571165  601.269547  262.499505  11.894898  10591.351033  11105.679387  10293.548604  10441.713294
  7119.144  7119.100  2.000  73.678186  601.169981  262.537191  11.052760  10843.899224  11711.768990  10946.667935  10790.777650
  7119.432  7119.400  2.000  77.310830  601.133950  262.489774  10.231243  11460.613528  11908.826442  11516.780643  11587.943955
  7119.731  7119.700  2.000  80.067727  600.857274  262.415197  9.506156  11852.513395  12606.938790  11848.836575  11800.987218
  7120.023  7120.000  2.000  84.125329  600.733724  262.462939  8.754967  12481.764681  13145.059749  12593.995288  12316.102518
  7120.320  7120.300  2.000  87.003494  602.175850  263.041629  8.116327  12954.983568  13709.163135  12773.027404  12954.229186
  7120.627  7120.600  2.000  91.579558  602.121520  263.011575  7.391696  13579.164692  14425.308320  13531.184785  13606.364878
  7120.896  7120.900  2.000  95.672839  601.897161  262.954665  6.822916  14059.883935  15102.471897  14302.344608  14120.509839
  7121.208  7121.200  2.000  98.923157  601.818200  263.010561  6.240798  14741.149180  15102.471897  14819.460500  14870.674870
  7121.511  7121.500  2.000  103.745953  601.776666  263.058092  5.724139  15293.772030  16332.724196  15460.607342  15344.790362
  7121.801  7121.800  2.000  107.947065  601.722596  263.010059  5.293351  15922.628383  16900.864908  16108.744233  16021.950650
  7122.109  7122.100  2.000  112.084990  601.667785  262.963196  4.898028  16507.908496  17450.997427  16798.908319  16680.113247
  7122.401  7122.400  2.000  114.988467  601.572089  262.954265  4.577944  16924.494951  18175.155207  17061.993535  17012.208724
  7122.707  7122.700  2.000  120.604093  601.491893  262.937115  4.289460  17869.499259  18914.303501  17982.189150  17776.392411
  7123.004  7123.000  2.000  125.125210  601.481297  262.972722  4.048136  18246.958030  19671.507061  18773.404449  18568.604060
  7123.307  7123.300  2.000  129.463405  601.417457  262.943737  3.835358  19332.763618  20260.614494  19208.466297  19059.707719
  7123.604  7123.600  2.000  134.811279  601.455340  262.980172  3.658292  19578.363519  21076.851268  20404.777700  20022.971066
  7123.909  7123.900  2.000  139.898369  601.385317  263.043248  3.500971  20336.624807  22213.152471  20925.903607  20657.144351
  7124.200  7124.200  2.000  144.279268  601.303338  262.957124  3.362608  21209.910552  22359.212196  21835.137906  21351.344743
  7124.508  7124.500  2.000  148.638619  601.228432  263.000932  3.231824  21704.556577  23238.412539  22484.306599  21938.488215
  7124.803  7124.800  2.000  154.105794  601.223639  263.002436  3.115642  22466.190068  24118.604845  23278.522447  22788.729101
  7125.102  7125.100  2.000  159.058493  601.184068  263.039446  3.006354  23218.719982  24792.877689  23961.804205  23650.030227
  7125.397  7125.400  2.000  161.745702  601.057386  262.990202  2.909250  23816.608111  25318.992114  24362.808775  23720.039929
  7125.700  7125.700  2.000  166.450197  600.993298  263.039744  2.817508  24264.958428  25868.117037  25183.084793  24719.292415
  7125.999  7126.000  2.000  168.773573  600.951014  263.035614  2.733493  24883.922769  25868.117037  25581.181482  25091.428545
  7126.307  7126.300  2.000  173.156411  600.875699  263.033014  2.649542  25364.995628  27242.562591  25859.304566  25578.616600
  7126.605  7126.600  2.000  174.309223  600.838347  263.009028  2.569856  25364.995628  27242.562591  26545.490618  25578.616600
  7126.904  7126.900  2.000  181.131470  600.799581  263.046898  2.489130  26232.263763  28235.786748  27603.727099  26751.933929
  7127.203  7127.200  2.000  183.020060  600.707615  263.062445  2.408629  26904.810696  28405.881615  27710.837130  26920.013947
  7127.509  7127.500  2.000  189.080053  600.607721  263.019246  2.321161  27554.290602  29343.189212  28585.094716  28080.364958
  7127.806  7127.800  2.000  192.778403  600.513904  262.978272  2.236843  28078.948080  30050.382513  29022.229275  28614.551677
  7128.110  7128.100  2.000  195.799161  600.450635  262.984077  2.149878  28078.948080  30050.382513  30000.554389  29437.845789
  7128.401  7128.400  2.000  203.945463  600.424159  263.014342  2.063819  29182.842324  31895.955312  31133.918559  30241.066600
  7128.705  7128.700  2.000  206.898319  600.297431  262.993186  1.970798  29854.078686  32133.104629  31336.014977  30877.331070
  7129.002  7129.000  2.000  214.079664  600.237613  262.984885  1.876972  31161.295685  33274.458262  32389.306035  31673.606635
  7129.304  7129.300  2.000  216.943972  600.143184  262.950296  1.781351  31376.554940  34040.680641  32623.423072  32156.787390
  7129.597  7129.600  2.000  221.122578  600.073177  262.953840  1.692996  32046.283020  34424.783874  33322.632361  32896.028708
  7129.897  7129.900  2.000  223.335208  600.006722  262.908406  1.608006  32228.537596  34915.004701  33750.891612  33108.192023
  7130.196  7130.200  2.000  225.567438  599.889638  262.916343  1.534757  32488.212927  35301.140002  34305.007024  33221.208567
  7130.507  7130.500  2.000  227.913493  599.804873  262.952419  1.468279  33120.974984  35542.210473  34373.080703  33667.357523
  7130.800  7130.800  2.000  229.006230  599.699799  262.947278  1.415592  32799.870501  35636.312838  34761.237784  34137.568766
  7131.108  7131.100  2.000  229.708370  599.611007  262.886290  1.373482  33371.877398  35518.203595  34449.042366  34396.543909
  7131.402  7131.400  2.000  231.609756  599.518298  262.863968  1.347044  33533.890828  35810.379629  35180.416937  34329.599373
  7131.708  7131.700  2.000  229.727008  599.390766  262.888540  1.337819  32957.031992  35665.334989  34837.310898  34236.569222
  7132.005  7132.000  2.000  228.534382  599.292092  262.979205  1.346171  32997.002483  35418.242932  34678.187108  33865.415155
  7132.310  7132.300  2.000  225.446624  599.247493  263.021010  1.370372  32462.207054  35027.052500  34375.881551  33233.183278
  7132.601  7132.600  2.000  224.262023  599.242185  263.040885  1.406506  32400.135111  34878.036554  33699.812059  33409.280930
  7132.905  7132.900  2.000  222.283233  599.202106  263.146241  1.456624  31944.860473  34591.877868  33821.775647  32834.067557
  7133.203  7133.200  2.000  220.338472  599.170707  263.176065  1.515455  31615.979373  34243.751073  33415.639253  32744.988161
  7133.507  7133.500  2.000  219.729395  599.076292  263.220602  1.584700  31628.242002  34110.757213  33377.749291  32517.922810
  7133.798  7133.800  2.000  218.064672  599.106831  263.248693  1.655260  31410.821174  33553.622964  33166.658617  32512.931754
  7134.100  7134.100  2.000  217.692286  599.049726  263.247133  1.729745  31338.404847  34218.808304  32844.521621  32006.769464
  7134.398  7134.400  2.000  216.716594  599.140135  263.322426  1.801540  31092.786870  33633.558512  32867.485384  32249.778466
  7134.707  7134.700  2.000  215.207642  599.125872  263.383386  1.871725  31113.882255  33322.469023  32683.437136  31816.677584
  7135.001  7135.000  2.000  214.386733  599.168527  263.486878  1.936828  30803.221231  33249.470325  32672.443619  31728.647814
  7135.303  7135.300  2.000  213.804354  599.130190  263.452667  1.997732  31044.261335  33224.451829  32131.310495  31696.619690
  7135.601  7135.600  2.000  212.194091  599.065922  263.500634  2.051982  30510.030917  33096.416286  32081.216087  31430.585596
  7135.910  7135.900  2.000  209.933115  599.126925  263.622730  2.100966  30398.771047  32549.223690  31707.134521  31121.452052
  7136.203  7136.200  2.000  208.503017  599.048087  263.696846  2.139133  29931.644457  32472.190561  31429.076668  31070.421967
  7136.508  7136.500  2.000  206.726504  599.004166  263.653714  2.169927  29740.726892  32161.077849  31245.971971  30682.260209
  7136.801  7136.800  2.000  205.949835  598.979847  263.687645  2.191043  29860.677529  31885.003740  30950.867049  30663.252454
  7137.005  7137.000  2.000  205.681994  599.015789  263.739107  2.202272  29774.577056  32038.096238  31193.920780  30200.168029
  7138.005  7137.990  2.000  202.016310  599.023347  263.956514  2.208060  29095.710474  31352.873922  30603.827350  29960.074341
  7139.012  7138.990  2.000  202.206140  598.971535  264.112425  2.142451  29067.885772  31667.994074  30487.755914  29892.086125
  7140.036  7140.010  2.000  200.767669  599.025958  264.293486  2.039611  28774.552298  31286.825221  30507.705421  29695.962237
  7141.063  7141.060  2.000  200.487218  599.014588  264.429378  1.950473  28790.442275  31323.814104  30439.642709  29540.869009
  7142.128  7142.120  2.000  199.356800  599.055194  264.607417  1.909789  28790.442275  30884.708352  30101.630466  29648.945469
  7143.214  7143.200  2.000  199.276669  599.068211  264.857086  1.922370  28804.954859  30802.724235  30157.662411  29614.976196
  7144.315  7144.300  2.000  195.591461  599.106870  265.022398  1.960406  28043.405254  30755.666867  29515.414824  28865.701190
  7145.435  7145.420  2.000  192.509254  599.148128  265.263843  1.978775  28001.247632  29889.426413  29106.328824  28344.556113
  7146.565  7146.560  2.000  190.530818  599.278746  265.481919  1.941473  27379.031276  29815.374527  29103.278322  27883.385661
  7147.718  7147.710  2.000  190.061792  600.117528  266.088942  1.846080  27445.391699  29542.302112  28903.240588  28168.478591
  7148.908  7148.890  2.000  189.965199  601.054617  266.704317  1.723365  27445.391699  29542.302112  28903.240588  28288.525473
  7150.091  7150.080  2.000  188.987124  601.056081  266.904385  1.624957  27433.872186  29537.330034  28449.143075  28171.514504
  7151.306  7151.300  2.000  187.843388  601.130917  267.153235  1.565169  27305.619077  29311.260519  28756.246053  27545.342160
  7152.538  7152.530  2.000  185.694382  601.112908  267.351543  1.529441  26809.828579  29124.177056  28164.005462  27525.279049
  7153.795  7153.780  2.000  184.657536  601.030865  267.500472  1.505108  26935.503826  28757.104414  28123.052800  27169.217692
  7155.060  7155.050  2.000  182.404907  601.005936  267.694980  1.506216  26471.414869  28625.034157  27308.804673  27221.178203
  7156.355  7156.340  2.000  182.584000  601.058456  267.932443  1.530984  26559.735487  28883.033666  27375.775277  26925.112858
  7157.665  7157.650  2.000  182.357754  601.008211  268.182009  1.561478  26425.417465  28525.021097  27532.903931  27115.164649
  7158.993  7158.980  2.000  180.867768  600.941929  268.358757  1.578397  26180.296606  28093.857042  27845.873755  26570.998253
  7160.337  7160.330  2.000  180.554303  600.900957  268.587998  1.583812  26021.408766  27899.837518  27713.925773  26860.081474
  7161.714  7161.700  2.000  181.767357  600.888612  268.777923  1.592161  26128.892236  29001.123769  27392.857636  26699.061204
  7163.087  7163.080  2.000  182.430263  600.758860  269.027822  1.615548  26709.578954  28529.002502  27608.908322  26749.107172
  7164.497  7164.490  2.000  183.299586  600.628935  269.163599  1.649224  26548.756766  28759.100524  27669.954071  27117.223589
  7165.920  7165.910  2.000  184.131059  600.527277  269.336167  1.682493  26714.227977  28724.148045  27930.076903  27207.270272
  7167.355  7167.350  2.000  185.106960  600.388515  269.573410  1.707574  27077.755465  28669.074977  27952.973217  27436.289272
  7168.818  7168.810  2.000  187.069086  600.289488  269.706064  1.728442  27077.755465  29087.245032  28366.158664  27764.446401
  7170.303  7170.290  2.000  187.557013  600.212424  269.906374  1.755778  27188.145515  29162.252934  28380.219542  27843.431502
  7171.804  7171.790  2.000  190.180117  600.149105  270.120023  1.800501  27418.129945  29689.425163  28737.269950  28291.601863
  7173.327  7173.310  2.000  190.917974  600.122344  270.387571  1.874548  27510.831186  29809.469027  28915.251856  28338.590157
  7174.858  7174.850  2.000  192.619302  600.009645  270.569876  1.970280  27983.888549  30147.566705  28896.304649  28545.679350
  7176.422  7176.410  2.000  192.594675  599.921756  270.815619  2.087078  27866.096279  30091.549238  29199.448350  28384.641492
  7177.998  7177.980  2.000  192.528281  599.881831  271.044180  2.208510  27769.521153  30228.618745  29075.411691  28420.665907
  7179.587  7179.580  2.000  192.030590  599.827559  271.326101  2.305372  27859.689161  29815.468466  29344.486433  28165.596048
  7181.197  7181.190  2.000  192.580791  599.850330  271.612023  2.347331  27974.951162  29904.516007  29080.434245  28559.749401
  7182.841  7182.830  2.000  191.819475  599.808698  271.846753  2.339770  27653.320760  29944.564784  29150.430420  28306.673493
  7184.494  7184.480  2.000  192.119092  599.686682  271.986037  2.303266  27668.707672  29699.402634  29312.467080  28530.683687
  7186.157  7186.150  2.000  192.521311  599.703370  272.324827  2.231713  27442.885643  30380.648995  29158.438565  28473.705932
  7187.853  7187.840  2.000  191.901463  599.618109  272.553747  2.125786  27442.885643  29853.511237  29255.450113  28515.745418
  7189.563  7189.550  2.000  193.578768  599.653155  272.909177  2.016340  27724.158631  30432.672934  29033.442720  28889.844564
  7191.294  7191.280  2.000  194.984989  599.504149  273.114887  1.901367  28132.301648  30100.574530  29727.590624  28933.843234
  7193.046  7193.030  2.000  195.295644  591.794626  269.819275  1.768623  28132.301648  30036.544775  29094.409879  28311.656442
  7194.798  7194.790  2.000  195.862985  598.545770  273.187122  1.731827  28343.783916  30524.712003  29619.637408  28744.827993
  7196.589  7196.580  2.000  195.735398  598.772899  273.630782  1.749452  28343.783916  30542.799400  29512.572467  28801.895732
  7198.383  7198.380  2.000  195.751508  598.748017  273.853601  1.825706  28365.638555  30542.799400  29471.538462  28825.851022
  7200.224  7200.210  2.000  194.989747  598.651406  274.133543  1.946958  27843.570799  30385.771089  29666.638670  28834.905798
  7202.059  7202.050  2.000  193.180742  598.541154  274.401449  2.095937  28069.829652  30243.651713  29106.461288  28206.681476
  7203.920  7203.910  2.000  192.689530  598.495218  274.713526  2.272086  27640.923338  29780.515977  29325.545663  28576.777358
  7205.795  7205.790  2.000  189.243446  598.325387  274.912123  2.453768  27153.787633  29795.548875  28498.267320  27781.554207
  7207.708  7207.690  2.000  188.696207  598.193599  275.170784  2.573185  27229.512218  29427.448841  28309.298659  27910.603492
  7209.616  7209.610  2.000  188.930795  598.028412  275.429473  2.548415  27229.600051  29492.486319  28548.353275  27715.543657
  7211.564  7211.550  2.000  189.872798  597.914060  275.703170  2.343538  27471.266944  29568.485847  28651.302229  27836.560747
  7213.516  7213.510  2.000  193.686506  597.803031  275.930223  2.013864  28033.379767  29940.635593  29493.620967  28318.743950
  7215.491  7215.480  2.000  195.993373  597.661883  276.206394  1.680993  28371.491199  30570.820350  29598.607352  28596.849679
  7217.489  7217.480  2.000  198.653104  597.568239  276.514349  1.425365  28578.018542  30887.916770  30093.793504  29149.057006
  7219.502  7219.490  2.000  200.642594  597.347773  276.706558  1.272564  28778.374186  31365.050863  30173.815152  29536.166232
  7221.533  7221.520  2.000  200.587746  597.332744  277.064146  1.223501  28818.483573  31353.116766  30261.888192  29384.140549
  7223.595  7223.580  2.000  200.107444  597.206909  277.308135  1.277281  28701.556385  31185.016044  30058.768313  29560.207167
  7225.658  7225.650  2.000  198.299952  596.959857  277.569264  1.423791  28338.388290  30775.900726  30028.755550  29234.066258
  7227.757  7227.740  2.000  195.651119  594.267712  276.681612  1.634489  28045.806866  30271.756088  29310.639061  28640.940972
  7229.856  7229.850  2.000  191.202330  597.306713  278.458200  1.911075  27469.606071  29586.574137  28818.480753  28331.774500
  7231.989  7231.980  2.000  188.942821  597.133696  278.723024  2.214483  27179.611203  29341.514550  28547.368400  27755.631011
  7234.128  7234.120  2.000  187.113451  596.999754  279.050664  2.510725  26974.545925  28874.326004  28325.271763  27532.540545
  7236.303  7236.290  2.000  186.253509  596.870082  279.332628  2.746947  26834.106517  28913.324790  28065.222778  27356.493081
  7238.496  7238.480  2.000  185.224347  596.825006  279.691927  2.872793  26546.444455  28779.359699  28015.252146  27205.466076
  7240.694  7240.680  2.000  185.773412  596.744852  280.040555  2.887691  26581.402988  28648.216484  28366.271799  27263.435892
  7242.905  7242.900  2.000  187.409475  596.557789  280.269094  2.807056  26877.306132  28984.372033  28413.351111  27525.552991
  7245.154  7245.150  2.000  189.610242  588.294114  276.741383  2.637870  26778.513461  29051.353894  27960.149851  27756.572080
  7247.419  7247.410  2.000  191.719434  596.009472  280.715208  2.547930  27493.551705  29559.618399  28787.528489  28425.900050
  7249.694  7249.690  2.000  191.520694  596.105811  281.126177  2.481448  27484.579114  29607.652469  28915.527517  28158.839448
  7252.000  7251.990  2.000  192.455276  595.799857  281.401600  2.491645  27484.579114  29607.652469  28976.607046  28595.987091
  7254.317  7254.310  2.000  191.469412  592.084702  280.058002  2.547023  27436.516447  29410.518106  28629.399762  27889.675586
  7256.662  7256.650  2.000  193.521113  596.594360  282.571526  2.638078  27570.213007  30019.790289  29256.643104  28606.958304
  7259.013  7259.000  2.000  193.169246  595.984709  282.751835  2.638238  27672.615823  30079.796154  29051.617613  28321.887547
  7261.385  7261.380  2.000  192.023254  594.729995  282.527110  2.569777  27433.742688  29456.669174  29099.667115  28211.910173
  7263.780  7263.770  2.000  193.698035  581.891855  276.818837  2.442952  27541.908020  29279.483393  28374.335297  27515.582433
  7266.198  7266.190  2.000  194.753967  585.656490  278.970154  2.406554  27609.064290  29843.656814  28669.477527  27936.725785
  7268.632  7268.620  2.000  195.827700  597.494101  284.907581  2.397418  28148.056655  30232.859458  29484.804743  29140.174694
  7271.081  7271.070  2.000  195.236307  597.366584  285.268296  2.298590  28071.828262  30314.915590  29376.773568  28864.128015
  7273.556  7273.550  2.000  197.037099  595.960382  284.999786  2.172972  28217.306915  30472.965168  30048.943390  28687.089316
  7276.049  7276.040  2.000  198.440169  597.831614  286.410631  2.102543  28454.447581  30749.064598  29901.930165  29528.364394
  7278.555  7278.550  2.000  197.518968  597.602419  286.662298  2.063533  28242.507102  30952.154204  30008.968851  28834.182975
  7281.074  7281.070  2.000  198.789721  597.345316  286.973998  2.013816  28463.598365  30897.130285  30145.054527  29240.325452
  7283.624  7283.620  2.000  199.094468  598.040665  287.730478  1.946250  28792.158596  31070.139724  30044.017550  29160.272409
  7286.200  7286.190  2.000  202.704598  597.864550  288.098751  1.876573  28865.622265  31607.385461  30885.344168  29831.541434
  7288.774  7288.770  2.000  200.810522  598.588441  288.820735  1.841144  28896.951797  31041.202335  30365.173791  29899.529656
  7291.389  7291.380  2.000  201.036942  598.518280  289.201322  1.886890  29040.308242  31429.340715  30364.181528  29490.453916
  7294.003  7294.000  2.000  198.177189  598.454293  289.619903  2.039189  28358.441052  30812.129734  29924.028799  29505.390014
  7296.652  7296.650  2.000  196.488737  598.312086  290.006419  2.254286  28358.168204  30215.037271  29800.035062  29188.345814
  7299.318  7299.310  2.000  195.808742  598.044969  290.387867  2.481332  28393.466084  30285.973535  29734.878253  28688.114851
  7301.999  7301.990  2.000  194.558679  588.049409  285.945474  2.640027  27635.969391  29599.679908  29078.656304  28095.810794
  7304.696  7304.690  2.000  192.627310  598.355771  291.381778  2.851431  27846.872430  30030.922128  29119.808593  28262.059351
  7307.406  7307.410  2.000  192.212116  598.197640  291.802583  2.966905  27733.092951  29757.864395  29099.792092  28390.084410
  7310.154  7310.150  2.000  191.718189  598.026857  292.144487  3.024032  27587.010702  29909.889556  28755.638437  28400.087261
  7312.912  7312.900  2.000  191.701099  597.877124  292.560782  3.031416  27563.095811  29759.831741  29050.751594  28240.022430
  7315.683  7315.680  2.000  192.581927  597.663452  292.844794  3.030079  27753.269422  29682.901275  29265.859021  28397.149356
  7318.472  7318.470  2.000  191.592405  597.559801  293.303991  3.045938  27553.009597  29658.929994  28729.771446  28546.208651
  7321.288  7321.290  2.000  192.739222  597.421422  293.664525  3.064573  27847.808045  29628.828890  29188.763602  28481.139529
  7324.130  7324.120  2.000  192.519258  597.239257  294.071512  3.080251  27738.215670  30000.976727  28992.743911  28248.122077
  7326.962  7326.970  2.000  192.543344  597.134831  294.553381  3.090414  27428.395578  30000.976727  29312.844751  28232.120336
  7329.849  7329.850  2.000  191.983649  596.981785  294.925331  3.106733  27629.796962  29737.938790  29064.873679  28178.131904
  7332.739  7332.740  2.000  191.444107  596.860786  295.355845  3.159799  27517.683631  29847.975472  28734.707417  28165.113647
  7335.651  7335.650  2.000  191.219663  596.800259  295.807965  3.240518  27500.104821  29461.869771  29061.857890  28096.112023
  7338.569  7338.570  2.000  191.036361  596.395370  296.062731  3.293805  27158.384180  29766.913552  28886.802138  28121.101476
  7341.527  7341.520  2.000  191.095800  595.369658  296.058587  3.279167  27336.958449  29491.841001  28855.756593  28088.085238
  7344.486  7344.490  2.000  193.065742  595.905462  296.821320  3.186265  27582.715701  29949.031471  29216.968996  28300.214275
  7347.470  7347.470  2.000  193.335089  595.863944  297.277580  3.028081  27843.377369  29793.958006  29447.924146  28116.149077
  7350.477  7350.480  2.000  196.423592  595.810584  297.717279  2.866697  27975.510913  30494.222557  29656.105807  28905.415704
  7353.503  7353.500  2.000  196.557598  595.689951  298.255259  2.731697  28397.715596  30454.225836  29563.074647  28672.369715
  7356.541  7356.550  2.000  198.140383  595.571630  298.647512  2.619385  28261.024912  30731.238167  30067.115214  28947.412367
  7359.607  7359.610  2.000  199.243140  595.419217  299.049593  2.524134  28628.808176  30879.489627  29986.298310  29138.598092
  7362.680  7362.690  2.000  200.018996  595.198762  299.499266  2.452402  28600.783908  30813.350332  30224.299755  29412.624876
  7365.792  7365.790  2.000  200.359093  595.007551  299.887878  2.420755  28600.783908  30813.350332  30224.299755  29576.739514
  7368.910  7368.910  2.000  200.250769  594.816936  300.341636  2.443774  28452.004743  30951.464526  30238.385367  29470.694451
  7372.053  7372.050  2.000  199.909369  594.637071  300.796392  2.535430  28502.170322  30951.464526  30121.263009  29298.623889
  7375.206  7375.200  2.000  200.050751  594.411682  301.149198  2.711619  28502.170322  30990.446423  30121.263009  29298.623889
  7378.379  7378.380  2.000  196.332017  594.124308  301.549934  2.984376  28213.909525  30469.245396  29255.024150  28707.444578
  7381.575  7381.570  2.000  195.370206  593.890402  301.939072  3.316611  28213.909525  29902.140444  29567.124772  28345.315768
  7384.785  7384.790  2.000  194.107786  593.551617  302.344009  3.599004  27893.479943  29999.143546  28902.002071  28418.364639
  7388.026  7388.020  2.000  193.535938  593.304611  302.732927  3.733177  27468.355157  29905.125831  29213.002010  28239.281695
  7391.272  7391.270  2.000  193.222201  593.036545  303.126750  3.737005  27255.171174  29645.134472  29331.136468  28356.384377
  7394.550  7394.550  2.000  193.812533  592.746423  303.554977  3.679625  27374.254435  30167.187710  29339.019012  28001.224860
  7397.846  7397.840  2.000  194.703330  592.449708  303.912383  3.628610  27446.211985  30215.260538  29027.989233  28662.469280
  7401.157  7401.150  2.000  194.490148  592.122664  304.213993  3.622984  27572.366535  29969.186798  29147.053424  28473.417701
  7404.469  7404.470  2.000  194.221450  591.911653  304.698317  3.641390  27633.399835  29750.099303  29233.042990  28345.397460
  7407.824  7407.820  2.000  194.338064  591.648657  305.143972  3.649116  27500.169013  30022.230479  29150.039389  28307.415678
  7411.189  7411.190  2.000  194.470305  591.422492  305.594529  3.647491  27471.458540  30201.234517  29126.066549  28215.352764
  7414.578  7414.570  2.000  195.158773  591.145503  306.043016  3.647145  27812.466364  29696.159930  29304.140706  28554.464157
  7417.985  7417.980  2.000  194.723612  590.889295  306.420394  3.660871  27812.466364  29870.189941  29233.080636  28144.360825
  7421.406  7421.400  2.000  196.987846  590.657812  306.883106  3.703782  28012.321591  30308.341627  29427.190001  28604.556629
  7424.856  7424.850  2.000  194.343417  590.443203  307.356063  3.784367  27685.123285  29585.104308  29315.129459  28163.392910
  7428.315  7428.310  2.000  194.303632  590.208249  307.780456  3.856438  27193.797623  29988.252284  29353.170999  28144.385634
  7431.795  7431.790  2.000  194.464131  589.871094  308.143070  3.875001  27193.797623  29822.267873  29343.181763  28349.522211
  7435.289  7435.290  2.000  195.503144  589.639840  308.653149  3.864001  27675.285607  30078.364500  28978.189327  28544.603411
  7438.807  7438.810  2.000  195.203157  589.367180  309.118963  3.819973  27675.285607  29966.303350  29020.186506  28384.558651
  7442.350  7442.350  2.000  197.245795  588.992147  309.429800  3.728197  28110.122178  30187.336655  29387.194188  28491.571477
  7445.910  7445.900  2.000  197.707979  586.190816  308.572955  3.606010  27701.546263  30004.265720  29476.190552  28712.598810
  7449.483  7449.480  2.000  197.645523  588.674955  310.431627  3.542773  27973.682616  30125.359249  29681.304403  28568.623379
  7453.091  7453.080  2.000  197.485272  587.055267  310.154178  3.505681  27970.443406  30188.469759  29560.311208  28215.544680
  7456.693  7456.690  2.000  199.110250  588.476582  311.553522  3.524232  28315.195632  30465.482703  29719.357604  28671.683315
  7460.319  7460.320  2.000  198.871400  572.987703  303.956537  3.458330  27264.215108  30019.241392  28665.039436  28002.370944
  7463.983  7463.980  2.000  198.624498  588.150376  312.596232  3.604395  28052.383096  30593.596390  29382.316400  28792.776950
  7467.648  7467.650  2.000  196.789678  584.455213  311.274299  3.676232  27407.448392  30130.427150  29110.253203  28366.624260
  7471.340  7471.340  2.000  197.077168  588.001007  313.661042  3.828641  27877.976710  30139.516795  29566.418234  28297.661612
  7475.060  7475.050  2.000  197.362782  587.667282  314.059876  3.959422  27909.063883  29903.431376  29389.369220  28781.785134
  7478.782  7478.780  2.000  196.788340  587.375096  314.551865  4.065333  27751.934210  29907.486592  29489.413105  28439.736340
  7482.526  7482.520  2.000  195.687075  587.181841  315.050432  4.159414  27601.453531  29804.429313  29247.369626  28250.644292
  7486.298  7486.290  2.000  196.969376  586.836858  315.486033  4.275990  27837.321476  29956.474889  29330.352956  28464.740473
  7490.081  7490.080  2.000  195.931536  586.624567  316.026116  4.404020  27561.928430  29725.349035  29423.333969  28227.641066
  7493.880  7493.880  2.000  195.159002  586.383014  316.484635  4.506160  27402.683777  29799.382797  29147.244931  28088.612561
  7497.710  7497.710  2.000  195.418726  586.184138  317.040621  4.555738  27469.083165  29575.335607  29347.293372  28159.645188
  7501.548  7501.550  2.000  195.836324  585.954632  317.583275  4.551598  27608.847465  29898.469198  29334.281522  27909.603294
  7505.417  7505.410  2.000  196.432338  585.595212  317.977099  4.530839  27803.257433  29699.456977  29146.352734  28380.769434
  7509.300  7509.290  2.000  197.520755  585.327564  318.463329  4.526758  27939.603662  30173.578283  29020.324568  28480.835989
  7513.201  7513.190  2.000  196.510984  585.041893  318.956030  4.551193  27939.603662  29888.518457  29020.324568  28118.711401
  7517.118  7517.110  2.000  196.102930  584.771174  319.434150  4.593945  27528.740230  29888.518457  29139.370277  28118.711401
  7521.059  7521.050  2.000  196.804271  586.058987  320.844691  4.645509  27669.168792  29815.475299  29441.446130  28412.821716
  7525.016  7525.010  2.000  196.793799  585.768913  321.277221  4.667021  27303.785125  30375.665299  29214.403680  28381.835536
  7528.980  7528.980  2.000  197.518911  585.562730  321.889325  4.674316  27724.622200  30095.654077  29425.553744  28413.882920
  7532.977  7532.980  2.000  196.672827  585.266763  322.386993  4.675975  27474.864045  30336.806988  28930.480357  28363.917277
  7536.989  7536.990  2.000  197.728921  584.957149  322.725785  4.694637  27458.698449  30159.655840  29322.567992  28722.023698
  7541.031  7541.030  2.000  198.208168  584.639144  323.229503  4.735888  27744.984580  30051.696803  29692.636781  28390.935643
  7545.083  7545.080  2.000  197.582621  584.336790  323.781359  4.779834  27651.607417  30296.744416  29169.517187  28336.925505
  7549.156  7549.150  2.000  197.781749  584.094050  324.257323  4.815419  27649.907209  30003.720707  29315.527515  28553.987285
  7553.239  7553.240  2.000  198.592252  583.752434  324.734357  4.826800  27921.217403  30042.751593  29304.639557  28660.101874
  7557.358  7557.350  2.000  198.756881  583.485073  325.250948  4.802209  27921.217403  30042.751593  29304.639557  28703.064506
  7561.484  7561.480  2.000  198.130366  583.220179  325.749077  4.769516  27536.126351  30143.819872  29351.641904  28522.039671
  7565.634  7565.630  2.000  199.899554  582.891603  326.267090  4.761850  27702.082886  30383.836371  29567.703516  28866.148394
  7569.792  7569.790  2.000  198.945279  582.632665  326.753177  4.797467  27713.526643  30260.819207  29446.631851  28491.040193
  7573.983  7573.980  2.000  199.439481  582.268705  327.236807  4.879588  27923.790283  30094.803394  29599.707970  28509.066484
  7578.182  7578.180  2.000  199.310759  582.071714  327.798311  4.996970  27868.383654  30158.865055  29344.722635  28641.183703
  7582.415  7582.410  2.000  198.915957  581.703660  328.362425  5.127767  27652.498453  30158.865055  29524.709291  28374.067478
  7586.650  7586.650  2.000  198.208882  581.288738  328.723982  5.232859  27606.109146  29759.716322  29508.723191  28342.042253
  7590.907  7590.910  2.000  198.643767  580.829939  329.277832  5.308455  27620.522831  30175.901183  29171.693143  28410.129936
  7595.192  7595.190  2.000  199.140006  580.274216  329.618392  5.352017  27714.128359  30050.838949  29239.684210  28551.159229
  7599.489  7599.490  2.000  198.469312  579.609479  329.906339  5.373467  27714.128359  29652.744556  29198.664670  28469.156791
  7603.811  7603.810  2.000  199.010041  577.408924  329.340357  5.390249  27532.512368  29854.838761  29267.723773  28255.098816
  7608.150  7608.150  2.000  198.669219  577.132146  329.867589  5.448219  27714.826821  29987.889251  28934.646724  28021.029798
  7612.509  7612.510  2.000  198.289130  576.337107  330.114930  5.520055  27248.937629  29868.799304  29066.607115  28097.039463
  7616.890  7616.890  2.000  198.833241  576.634334  330.973524  5.592551  27571.712246  29745.757694  29146.578131  28190.025546
  7621.275  7621.280  2.000  200.663035  577.155439  331.980699  5.631556  27792.728534  30232.998518  29308.783884  28479.250995
  7625.701  7625.700  2.000  200.426165  577.646490  332.906569  5.647909  27553.247392  30458.093286  29343.825469  28420.304790
  7630.131  7630.130  2.000  199.559757  577.652316  333.620190  5.678725  27852.228378  29728.903243  29227.756337  28467.267984
  7634.581  7634.580  2.000  198.851094  577.444838  334.263564  5.739197  27553.615756  29967.938507  29277.836966  28026.146522
  7639.051  7639.050  2.000  199.482514  577.142083  334.805192  5.823570  27567.731856  29951.003470  29351.790720  28259.227519
  7643.541  7643.540  2.000  198.845454  576.873298  335.381486  5.913133  27567.731856  29678.911656  29351.790720  28110.198537
  7648.052  7648.050  2.000  198.583225  576.570393  335.892908  5.991463  27594.205351  29606.942247  29096.791414  28199.269105
  7652.584  7652.580  2.000  198.864046  576.289220  336.464238  6.051190  27264.204576  30003.977120  29028.768845  28306.255188
  7657.133  7657.130  2.000  199.465031  575.993511  337.033529  6.096789  27652.400430  29709.943510  29115.842555  28412.376879
  7661.698  7661.700  2.000  199.186283  575.664320  337.578773  6.129067  27636.348808  29709.943510  28905.767181  28412.376879
  7666.284  7666.280  2.000  199.663861  575.354883  338.084782  6.145371  27377.054126  29942.116372  29314.019421  28244.387193
  7670.893  7670.890  2.000  200.764870  575.041617  338.654825  6.154423  27922.739517  29889.040526  29294.988765  28341.386593
  7675.516  7675.510  2.000  200.209403  574.671967  339.182120  6.161204  27325.226478  29921.091224  29346.977263  28461.436526
  7680.166  7680.160  2.000  201.606832  574.214403  339.644886  6.172541  27531.701612  29958.154610  29331.045161  28944.645427
  7684.820  7684.820  2.000  200.104105  573.724751  340.071951  6.197375  27577.226420  29841.079845  29231.955681  28154.415905
  7689.501  7689.500  2.000  200.964047  572.917865  340.355381  6.248558  27577.226420  29896.167820  29273.004725  28389.493449
  7694.204  7694.200  2.000  201.461876  573.381646  341.344083  6.329719  27757.812597  29956.172793  29462.059368  28338.497675
  7698.921  7698.920  2.000  200.877769  572.833182  341.794819  6.406612  27625.781152  29914.169373  29152.984295  28376.517057
  7703.662  7703.660  2.000  201.181477  572.182183  342.164209  6.475509  27625.781152  29865.149453  29152.984295  28468.542009
  7708.409  7708.410  2.000  199.804337  572.549248  343.140159  6.557884  27541.282983  29633.102987  29078.988747  28144.448282
  7713.198  7713.190  2.000  199.025646  571.797024  343.525915  6.637852  27473.742907  29597.149205  28584.880694  28146.499034
  7717.990  7717.990  2.000  200.524397  571.047656  343.794677  6.720407  27446.451948  29499.052688  29258.968701  28304.513490
  7722.801  7722.800  2.000  201.549373  571.056338  344.491112  6.804564  27811.213949  30038.286437  29174.039293  28072.507396
  7727.631  7727.630  2.000  201.703972  570.437048  344.871146  6.864134  27242.276367  30025.309504  29246.137577  28545.695042
  7732.495  7732.490  2.000  201.120317  569.933702  345.289293  6.914094  27541.391357  29699.170242  29205.143876  28179.541594
  7737.364  7737.360  2.000  200.865133  569.257904  345.723564  6.966250  27312.131627  29652.211809  29099.106669  28280.614652
  7742.256  7742.250  2.000  201.379556  569.383016  346.536621  7.030001  27404.016180  29810.279992  29059.121683  28388.680927
  7747.168  7747.160  2.000  201.227780  568.633509  346.913808  7.088009  27059.594790  29751.312145  29226.226474  28387.725168
  7752.091  7752.090  2.000  201.189560  568.035513  347.258864  7.138974  27059.594790  29751.312145  29084.182675  28387.725168
