# XDI/1.0 BlueSky/1.10.0 BMM/2023-1.0-py310-tiled
# Beamline.name: BMM (06BM) -- Beamline for Materials Measurement (NIST)
# Beamline.xray_source: NSLS-II three-pole wiggler
# Beamline.collimation: paraboloid mirror, 5 nm Rh on 30 nm Pt
# Beamline.focusing: not in use
# Beamline.harmonic_rejection: flat mirror, Pt stripe, pitch = 7.0 mrad relative to beam
# Beamline.software: Bluesky 1.10.0, Ophyd 1.7.0, DataBroker 2.0.0b13, Python 3.10.8, 2023-1.0-py310-tiled
# Detector.I0: 10 cm N2
# Detector.I1: 25 cm N2
# Detector.I2: 25 cm N2
# Detector.fluorescence: SII Vortex ME4 (4-element silicon drift)
# Detector.deadtime_correction: Xspress3
# Element.symbol: Zn
# Element.edge: K
# Element.reference: Zn
# Element.reference_material: Zn foil
# Facility.name: NSLS-II
# Facility.energy: 3.0
# Facility.current: 400.5
# Facility.mode: top-off
# Facility.GUP: 123456
# Facility.SAF: 301027
# Facility.cycle: 2023-2
# Mono.name: Si(111)
# Mono.d_spacing: 3.1351860
# Mono.encoder_resolution: 0.0000050 deg/ct
# Mono.angle_offset: 16.0754326 deg
# Mono.scan_mode: pseudo channel cut
# Mono.scan_type: step
# Mono.direction: forward in energy
# Sample.name: Ca(Zn,Mn,Fe,Mg)Si2O6
# Sample.prep: powder in PEG pellet
# Sample.x: 116.329 mm
# Sample.y: 114.126 mm
# Sample.SDD_position: 35.000 mm
# Scan.experimenters: Bruce Ravel
# Scan.edge_energy: 9658.6
# Scan.start_time: 2023-05-07T12:03:03
# Scan.end_time: 2023-05-07T12:20:50
# Scan.transient_id: 74875
# Scan.uid: 23087f9d-cb0f-417d-9302-aed8d91d8d55
# Scan.plot_hint: (Zn1+Zn2+Zn3+Zn4)/I0  --  ($8+$9+$10+$11)/$5
# Column.1: energy eV
# Column.2: requested_energy eV
# Column.3: measurement_time seconds
# Column.4: xmu 
# Column.5: I0 nA
# Column.6: It nA
# Column.7: Ir nA
# Column.8: Zn1 
# Column.9: Zn2 
# Column.10: Zn3 
# Column.11: Zn4 
# ///////////
# sample courtesy Martin Stennett, University of Sheffield
# -----------
# energy  requested_energy  measurement_time  xmu  I0  It  Ir  Zn1  Zn2  Zn3  Zn4
  9458.573  9458.600  2.000  46.739879  417.010060  421.003919  232.802448  6620.541842  6309.207618  2839.897024  3721.353181
  9468.665  9468.600  2.000  45.549556  416.424176  421.232195  233.359972  6597.164196  6112.946029  2674.663848  3583.162119
  9478.652  9478.600  2.000  45.529899  415.696997  421.340040  233.846679  6161.250328  6396.373526  2770.821215  3598.197408
  9488.629  9488.600  2.000  47.694283  414.994928  421.515930  234.371408  6239.346781  6828.018196  3025.167785  3700.352574
  9498.628  9498.600  2.000  44.298197  414.337664  421.718141  234.906536  6016.612503  6305.255011  2741.781750  3290.762054
  9508.632  9508.600  2.000  46.133951  413.622326  421.822677  235.393486  5731.755734  7062.372020  2911.014190  3376.890278
  9518.631  9518.600  2.000  45.965148  412.939096  421.984955  235.910771  5608.451017  7043.374054  2990.136753  3338.844656
  9528.628  9528.600  2.000  41.461871  412.260854  422.142255  236.424064  5530.352870  5946.767394  2479.430611  3136.555310
  9538.611  9538.600  2.000  39.414708  411.583223  422.373796  236.949359  5287.565721  5430.027651  2409.331738  3095.507303
  9548.615  9548.600  2.000  38.551122  410.877300  422.443530  237.407133  5162.268008  5430.027651  2300.188516  2947.296820
  9558.610  9558.600  2.000  36.820706  410.183680  422.531994  237.862984  5056.645406  4988.393610  2248.115784  2810.097854
  9568.610  9568.600  2.000  35.623238  409.470197  422.695820  238.343127  4897.533083  4697.975289  2121.951337  2869.194720
  9578.611  9578.600  2.000  34.001219  408.728409  422.797140  238.782457  4697.838187  4454.628376  2059.870489  2684.927119
  9588.606  9588.600  2.000  36.220338  408.021106  422.858313  239.197362  4712.927905  5175.725126  2222.101173  2667.908229
  9598.591  9598.600  2.000  33.808541  407.299935  422.941745  239.595900  4514.704409  4654.929153  2056.864294  2543.718784
  9608.975  9608.600  2.000  32.655483  406.346528  422.805186  239.841494  4386.467837  4332.451725  2002.793379  2547.729121
  9618.600  9618.600  2.000  32.141234  405.564815  422.788491  240.075076  4292.565129  4302.418617  1988.774173  2451.595857
  9628.588  9628.600  2.000  32.790638  405.106927  423.120788  240.391934  4340.592769  4359.520671  2010.813072  2572.788135
  9630.599  9630.600  2.000  31.505666  405.743043  423.975129  240.880150  4445.955498  3878.816042  1938.718539  2519.714841
  9632.587  9632.600  2.000  31.594192  405.495960  423.894167  240.830931  4306.813237  3938.908017  1929.706469  2635.889331
  9634.579  9634.600  2.000  32.879891  404.538501  423.065564  240.330626  4276.927399  4212.306797  2136.005020  2675.942410
  9636.588  9636.600  2.000  33.845964  405.156518  423.871974  240.736182  4399.222728  4585.877239  2130.986439  2596.826515
  9638.586  9638.600  2.000  32.111802  405.043548  423.858636  240.666171  4190.716348  4172.262174  2010.819579  2632.879937
  9640.593  9640.600  2.000  32.113534  404.889152  423.852041  240.560440  4380.751181  3975.964618  2024.840796  2620.865098
  9642.597  9642.600  2.000  32.089762  404.729670  423.862358  240.415704  4244.826812  4048.073958  2084.932961  2609.845177
  9644.605  9644.600  2.000  32.677899  404.536473  423.834326  240.199828  4358.354689  3918.900443  2188.075088  2754.071682
  9646.607  9646.600  2.000  32.889474  404.387860  423.841728  239.922701  4439.056973  3918.900443  2188.075088  2754.071682
  9648.601  9648.600  2.000  33.802051  403.359340  422.935328  239.003293  4410.814387  4124.198387  2326.266843  2773.093548
  9648.874  9648.900  2.000  34.477641  403.295791  422.899823  238.912879  4488.861074  4145.219851  2325.260678  2945.345777
  9649.164  9649.200  2.000  34.409019  403.325518  422.936833  238.860347  4531.242497  4187.317799  2325.283396  2834.191568
  9649.478  9649.500  2.000  33.767747  403.409987  423.090142  238.869229  4452.771741  4045.074590  2260.174324  2864.225657
  9649.775  9649.800  2.000  34.427291  403.587263  423.315453  238.916764  4641.808233  4097.153028  2333.288370  2822.166605
  9650.073  9650.100  2.000  34.759969  403.738324  423.441304  238.892596  4470.850256  4217.343412  2374.346636  2971.391171
  9650.391  9650.400  2.000  35.215689  403.796418  423.496224  238.828408  4496.649531  4363.559630  2377.354337  2982.405565
  9650.685  9650.700  2.000  34.629384  403.770099  423.530177  238.730077  4505.351854  4127.215768  2408.392802  2941.349403
  9650.986  9651.000  2.000  34.748247  403.782895  423.648011  238.692469  4585.802343  4191.325260  2410.403242  2843.217106
  9651.280  9651.300  2.000  34.907776  403.767802  423.592968  238.544069  4496.483124  4196.326828  2392.367431  3009.458487
  9651.594  9651.600  2.000  35.640570  403.736871  423.598597  238.408165  4663.047215  4339.554219  2423.414282  2963.396414
  9651.896  9651.900  2.000  35.513080  403.715527  423.649855  238.292241  4643.886703  4345.556793  2428.418008  2919.320314
  9652.194  9652.200  2.000  36.104679  403.677606  423.568676  238.111998  4629.997972  4455.702769  2436.432059  3052.517394
  9652.503  9652.500  2.000  36.547316  403.627322  423.525146  237.925585  4723.702600  4531.829751  2456.460487  3039.502408
  9652.801  9652.800  2.000  36.498445  403.566291  423.474358  237.724802  4738.818977  4344.546009  2499.523885  3146.653244
  9653.103  9653.100  2.000  36.954253  403.515773  423.459535  237.540944  4669.519248  4573.897609  2582.635166  3085.571808
  9653.405  9653.400  2.000  37.146587  403.465425  423.422716  237.324607  4668.156619  4566.872973  2617.684499  3134.649383
  9653.707  9653.700  2.000  37.892650  403.405658  423.414997  237.107760  4823.676972  4674.038957  2563.618092  3224.775482
  9654.001  9654.000  2.000  38.469481  403.383826  423.442147  236.887295  4756.085878  4809.250004  2661.756997  3290.873344
  9654.303  9654.300  2.000  38.146857  403.365227  423.386720  236.614132  4876.639102  4569.877666  2650.730632  3289.868154
  9654.609  9654.600  2.000  38.452325  403.326119  423.384933  236.337488  4888.174966  4787.213283  2718.830452  3114.608290
  9654.899  9654.900  2.000  39.423210  403.266743  423.318185  236.009081  4782.630982  4891.396648  2834.004938  3390.036888
  9655.197  9655.200  2.000  39.226318  403.227178  423.310597  235.660709  5007.189641  4626.967316  2760.893699  3422.066833
  9655.499  9655.500  2.000  39.312175  403.170680  423.286550  235.288254  4846.268092  4689.081480  2793.943347  3520.223586
  9655.797  9655.800  2.000  39.038726  403.121825  423.353125  234.903168  4846.268092  4538.869238  2930.137567  3422.087439
  9656.107  9656.100  2.000  40.402551  403.071638  423.235030  234.375427  5041.528641  4825.282135  2823.988771  3594.322959
  9656.401  9656.400  2.000  40.469365  403.031435  423.183027  233.850675  5101.897663  4674.061016  3019.256559  3515.210831
  9656.711  9656.700  2.000  41.051853  402.954587  423.124553  233.249929  5019.027501  4992.537296  2960.170095  3570.297711
  9656.993  9657.000  2.000  41.640681  402.897582  423.073420  232.599632  5289.971964  4784.229749  3086.361175  3616.366861
  9657.303  9657.300  2.000  41.985360  402.824042  423.059105  231.859462  5239.479517  4845.313183  3040.295227  3787.624661
  9657.594  9657.600  2.000  43.234016  402.753989  423.048520  231.032204  5406.944643  4994.545916  3214.543267  3796.638450
  9657.896  9657.900  2.000  42.653379  402.718707  423.099872  230.062287  5406.944643  4759.187086  3214.543267  3796.638450
  9658.202  9658.200  2.000  44.036759  402.672478  423.077895  228.859700  5524.405793  4759.187086  3418.829109  4029.968979
  9658.492  9658.500  2.000  45.192433  402.603932  423.030964  227.422586  5623.080404  5038.622396  3439.859696  4093.088895
  9658.802  9658.800  2.000  47.026280  402.536480  422.937774  225.540980  5667.193211  5327.063143  3671.195306  4264.341679
  9659.093  9659.100  2.000  48.521240  402.504214  422.879793  223.281249  5828.761788  5568.423633  3768.341261  4364.476846
  9659.403  9659.400  2.000  50.641208  402.452834  422.876606  220.232635  5939.397940  5994.048015  4015.678963  4431.572732
  9659.693  9659.700  2.000  50.862158  402.417342  422.893049  216.351181  6043.489184  5729.675194  4127.853751  4566.796239
  9660.004  9660.000  2.000  53.145153  402.390430  422.874067  211.098786  6177.608658  5968.036951  4350.180862  4889.274282
  9660.314  9660.300  2.000  55.103208  402.355199  422.860506  204.150872  6327.588232  6240.466749  4573.505629  5029.501427
  9660.596  9660.600  2.000  56.118979  402.300556  422.833505  196.208435  6327.588232  6228.463255  4791.834672  5228.810229
  9660.915  9660.900  2.000  59.174009  402.252510  422.806188  186.612573  6941.861964  6587.013496  4791.834672  5482.183483
  9661.205  9661.200  2.000  63.854096  402.203940  422.837341  177.303610  7040.742639  7096.778188  5478.782289  6066.065911
  9661.508  9661.500  2.000  67.363346  402.187003  422.882066  167.875000  7608.740795  7351.185288  5772.229056  6360.507235
  9661.798  9661.800  2.000  72.015098  402.120016  422.911150  159.416712  8034.566340  7740.806859  6223.888865  6959.450164
  9662.104  9662.100  2.000  78.418705  402.057246  422.815322  151.920178  8603.647441  8281.665151  6968.971667  7674.524481
  9662.411  9662.400  2.000  87.608309  402.018048  422.813261  145.475520  9522.679819  9236.157297  7939.426304  8521.857920
  9662.701  9662.700  2.000  97.615270  401.989844  422.828322  140.156380  10481.175043  10264.816029  8870.802710  9623.553498
  9663.008  9663.000  2.000  108.008009  401.946194  422.796775  135.221585  11353.025502  11421.689770  9912.362184  10726.330748
  9663.298  9663.300  2.000  121.948133  401.903129  422.780998  131.155535  12794.409948  12462.403807  11422.659851  12331.862559
  9663.601  9663.600  2.000  138.879103  401.861616  422.711875  127.494953  14309.692473  14126.184820  13196.428824  14177.874570
  9663.903  9663.900  2.000  156.510820  401.849243  422.686544  124.441210  16493.342051  15597.600926  14772.904213  16029.907237
  9664.202  9664.200  2.000  183.358516  402.542660  423.429633  122.065742  18732.877989  18334.257579  17954.980685  18787.508327
  9664.505  9664.500  2.000  207.409222  402.487849  423.368609  119.910367  21084.752942  20368.772719  20237.648356  21788.517462
  9664.787  9664.800  2.000  235.034128  402.447361  423.316631  118.164298  23966.788391  23009.439234  23265.624857  24347.012236
  9665.102  9665.100  2.000  260.680046  402.398500  423.250121  116.605340  26551.498589  25480.864902  25253.219618  27611.676330
  9665.396  9665.400  2.000  297.023613  402.322916  423.130330  115.268462  30115.047884  28589.538864  29259.037757  31535.781301
  9665.699  9665.700  2.000  339.157278  402.138482  422.918036  113.888021  33776.073293  32887.421472  33942.227946  35782.470178
  9665.994  9666.000  2.000  368.180626  401.850066  422.571522  112.471190  37211.608771  34754.252960  36829.572223  39157.974757
  9666.301  9666.300  2.000  402.914452  401.540704  422.208103  110.904222  40405.644824  38393.203801  40521.459171  42466.244832
  9666.591  9666.600  2.000  442.691831  401.298913  421.938396  109.271652  43560.592775  42645.467782  44531.833422  46913.856836
  9666.902  9666.900  2.000  471.329560  401.174222  421.833091  107.481335  46089.990577  45425.912413  47837.901470  49731.464911
  9667.205  9667.200  2.000  477.521090  401.138578  421.782906  105.730605  46089.990577  45425.912413  47837.901470  52198.326437
  9667.504  9667.500  2.000  503.514455  401.242506  421.934185  104.027885  49325.628037  48232.641879  51220.494040  53252.638026
  9667.802  9667.800  2.000  517.684459  401.506670  422.290885  102.414268  49867.742039  50262.524152  52930.782758  54792.713852
  9668.105  9668.100  2.000  518.226095  401.685221  422.435023  100.787483  50090.195060  50378.028686  53111.106221  54584.433554
  9668.400  9668.400  2.000  513.545485  401.680054  422.434420  99.315456  49747.157827  49851.719860  52495.699597  54186.400834
  9668.707  9668.700  2.000  514.205325  401.696774  422.491989  97.895914  50161.214063  49453.149931  52442.976304  54497.280263
  9668.998  9669.000  2.000  517.767376  401.632626  422.452271  96.579292  50228.964647  50274.612297  53474.580836  53974.112763
  9669.313  9669.300  2.000  515.803470  401.603268  422.460052  95.316146  50228.964647  49651.686290  53474.580836  53793.127350
  9669.604  9669.600  2.000  518.887179  401.560224  422.426592  94.237098  50523.068023  49852.412171  52794.138975  55194.832413
  9669.911  9669.900  2.000  526.848303  401.532504  422.424288  93.207750  51931.850521  50444.565335  53294.089838  55876.212674
  9670.197  9670.200  2.000  540.687417  401.488381  422.355331  92.354625  52475.120299  52095.885577  55290.679669  57218.030035
  9670.509  9670.500  2.000  545.259727  401.440384  422.304399  91.651956  52899.417240  52095.885577  55810.997965  58082.973521
  9670.799  9670.800  2.000  549.163889  401.375141  422.250909  91.178351  52901.832133  53287.387225  56084.507676  58147.006740
  9671.094  9671.100  2.000  549.622250  401.343734  422.257037  90.964065  53085.500385  53138.749717  56315.564911  58047.630900
  9671.397  9671.400  2.000  544.082477  401.293495  422.250546  91.052123  52225.290863  53088.806383  55701.407368  57321.254227
  9671.696  9671.700  2.000  525.580948  401.253695  422.268244  91.495306  51007.997336  50502.654790  53962.237901  55418.407076
  9672.000  9672.000  2.000  516.308889  401.198507  422.279457  92.300218  50314.504114  49686.962332  52895.006054  54245.882907
  9672.295  9672.300  2.000  502.872072  401.148149  422.266770  93.415973  48925.105519  48097.410179  51408.859679  53294.825459
  9672.602  9672.600  2.000  486.543793  401.090682  422.236082  94.818854  47487.464573  46875.940825  49239.653597  51545.123024
  9672.893  9672.900  2.000  483.034208  401.049879  422.201629  96.352432  46608.221287  46865.701560  49506.276898  50740.610787
  9673.204  9673.200  2.000  468.964513  401.014225  422.197063  98.028470  45807.818911  45059.107177  48009.169227  49185.345104
  9673.491  9673.500  2.000  470.061313  400.998777  422.207894  99.633585  45266.243550  46148.901909  48232.146065  48846.719979
  9673.802  9673.800  2.000  452.880961  400.953323  422.222533  101.286668  44390.022393  43546.223582  45927.255524  47720.624905
  9674.106  9674.100  2.000  452.511436  400.942709  422.244253  102.766043  44129.235333  43502.335724  46128.027382  47671.562303
  9674.409  9674.400  2.000  452.990161  400.880036  422.184594  104.118536  43927.973222  44181.324497  46125.640552  47359.773973
  9674.704  9674.700  2.000  444.802927  400.828440  422.135794  105.214334  43512.636734  42857.732904  44966.444960  46952.848915
  9675.011  9675.000  2.000  444.821252  400.778930  422.097410  106.206089  43393.807062  43103.231842  45090.552356  46687.394158
  9675.299  9675.300  2.000  443.748731  400.745379  422.112597  106.988749  43010.545083  43039.008114  45348.836836  46431.863310
  9675.614  9675.600  2.000  431.450511  400.708647  422.108674  107.664873  42211.646090  41538.191820  43628.930393  45507.182118
  9675.901  9675.900  2.000  430.473289  400.642174  422.053565  108.160462  42211.646090  41538.191820  43480.533550  45235.382680
  9676.209  9676.200  2.000  418.513943  400.588731  422.042119  108.602006  40859.987082  41283.577984  41743.600835  43764.803276
  9676.496  9676.500  2.000  413.200295  400.550208  422.016894  108.923592  39893.778485  40629.016238  42265.039864  42719.629439
  9676.807  9676.800  2.000  393.557278  400.487555  422.019142  109.178417  39011.004939  37820.915346  39507.022784  41275.848727
  9677.099  9677.100  2.000  377.208747  400.451316  422.011449  109.360171  37423.851066  36037.624789  37837.202312  39755.061004
  9677.406  9677.400  2.000  366.797191  400.414099  422.006022  109.475523  36342.351212  35296.238546  36416.890594  38815.286274
  9677.693  9677.700  2.000  355.296791  400.360480  422.035792  109.550852  35276.348061  33977.587764  35318.766018  37674.091794
  9678.001  9678.000  2.000  353.127614  400.307596  421.996953  109.577223  34497.638776  34355.234269  35464.872953  37041.920135
  9678.292  9678.300  2.000  348.661219  400.269274  421.971492  109.597990  34164.556102  33844.090751  35125.053809  36424.672512
  9678.604  9678.600  2.000  342.654212  400.209065  421.927743  109.622852  33403.373305  33403.320713  34707.365773  35619.262152
  9678.887  9678.900  2.000  332.624633  400.157759  421.931047  109.697478  33054.055802  32010.801154  33450.125842  34587.344675
  9679.195  9679.200  2.000  316.504464  400.145691  421.968666  109.838478  32132.982081  30025.408344  30772.713143  33716.793858
  9679.490  9679.500  2.000  320.023619  400.100140  421.996767  110.052389  32198.653528  30588.233188  31730.314896  33524.293232
  9679.806  9679.800  2.000  316.147715  400.081698  421.935087  110.347170  31801.903829  30420.006365  31163.323688  33099.680820
  9680.093  9680.100  2.000  309.280204  400.037004  421.885904  110.690733  31508.102887  29400.123012  30277.739608  32537.560426
  9680.401  9680.400  2.000  315.027687  399.968757  421.838738  111.149308  31272.144256  30460.735782  31454.439828  32813.912377
  9680.697  9680.700  2.000  304.503302  399.938533  421.823167  111.654410  30809.906913  29046.625322  29863.192744  32062.879044
  9681.012  9681.000  2.000  309.059609  399.900284  421.838020  112.242254  30699.527265  29946.038333  30704.388135  32243.071836
  9681.300  9681.300  2.000  302.351434  399.873588  421.856034  112.836345  30529.185832  28887.124867  29607.675886  31878.366135
  9681.612  9681.600  2.000  303.363936  399.838270  421.829413  113.460469  30589.791767  29058.491539  29800.894628  31847.333271
  9681.903  9681.900  2.000  306.286643  399.770529  421.785311  114.067572  30519.548796  29456.127297  30312.842319  32155.854922
  9682.215  9682.200  2.000  312.813456  399.740751  421.749700  114.693002  30511.278806  30286.439984  31519.750317  32726.816736
  9682.507  9682.500  2.000  306.809210  399.680705  421.711520  115.254671  30553.681387  29518.273932  30386.806171  32166.960026
  9682.811  9682.800  2.000  308.100995  400.742557  422.870053  116.131530  31028.528190  29518.273932  30386.806171  32535.572200
  9683.110  9683.100  2.000  307.193206  401.090997  423.266203  116.709838  30883.403446  29519.395727  30443.130147  32366.499743
  9683.406  9683.400  2.000  313.210277  401.042538  423.240411  117.127428  31189.218568  30365.947227  31389.585869  32665.892538
  9683.592  9683.600  2.000  313.894565  401.030355  423.334522  117.369417  31034.012686  30492.071361  31314.578352  33040.586500
  9684.605  9684.590  2.000  319.792095  400.947233  423.321288  118.106704  31593.424193  31073.145399  32057.749156  33495.436981
  9685.602  9685.590  2.000  322.235492  400.841794  423.265993  118.325932  31593.424193  32018.842285  32057.749156  33495.436981
  9686.632  9686.610  2.000  332.123927  400.746448  423.207942  118.210545  32531.945828  32385.523660  33519.376818  34660.637763
  9687.678  9687.660  2.000  338.604841  400.668941  423.145707  117.721517  32750.064602  33019.679848  34458.779484  35439.919246
  9688.749  9688.720  2.000  334.927262  400.554298  423.118511  116.863510  32863.498913  32697.232574  33828.975121  34766.847409
  9689.819  9689.800  2.000  323.672675  400.449123  423.097013  115.780835  31666.410308  31726.387380  32523.800390  33697.840842
  9690.907  9690.900  2.000  311.289398  400.342800  423.115646  114.493936  30672.928375  30134.424309  31140.200091  32674.916616
  9692.035  9692.020  2.000  300.155550  400.153517  423.054690  113.014485  29204.881992  29327.673123  30399.674418  31176.069462
  9693.175  9693.160  2.000  289.313025  400.126958  423.116827  111.516067  28258.487841  28653.461414  29014.301238  29835.689926
  9694.324  9694.310  2.000  283.621046  400.063868  423.141328  110.080667  27781.196030  27671.777941  28659.690250  29353.868583
  9695.506  9695.490  2.000  276.797807  399.971280  423.154299  108.802504  27105.585575  27157.814638  27932.460756  28515.312021
  9696.688  9696.680  2.000  275.801746  399.865846  423.161076  107.786296  27105.585575  26714.165528  27932.460756  28531.486476
  9697.903  9697.900  2.000  282.801371  399.739231  423.121228  107.064381  27679.746099  27436.486265  28288.195828  29642.374633
  9699.135  9699.130  2.000  287.667390  399.620545  423.062018  106.606844  28784.027717  27314.394475  28785.137196  30074.239746
  9700.395  9700.380  2.000  296.561352  399.497404  423.033352  106.476756  29586.661626  28442.479208  29504.509005  30941.840288
  9701.672  9701.650  2.000  296.633102  399.400772  423.011933  106.783607  29586.661626  28442.479208  29504.509005  30941.840288
  9702.953  9702.940  2.000  318.162560  399.290113  422.983065  107.563571  30795.631587  31295.460189  32272.095740  32675.976979
  9704.251  9704.250  2.000  324.213503  399.175549  422.941386  108.668935  31625.407605  31514.984765  32590.884420  33686.826169
  9705.585  9705.580  2.000  328.854206  398.997349  422.858873  109.682971  32130.761289  31735.539243  33024.579193  34321.076747
  9706.949  9706.930  2.000  337.792889  398.766389  422.732581  110.409223  33066.091626  32735.211617  34083.269231  34815.877853
  9708.317  9708.300  2.000  342.980882  398.213181  422.303111  110.872526  33066.091626  33051.047553  34709.671860  35752.697109
  9709.694  9709.680  2.000  356.302084  392.643838  416.492101  109.650323  34023.352925  34212.391072  35471.296647  36192.777056
  9711.100  9711.090  2.000  362.693884  398.455518  422.654430  111.198969  34903.895419  35233.080771  36654.951171  37725.452023
  9712.518  9712.510  2.000  366.191468  398.621105  422.948571  110.842795  35266.885013  35686.969850  37149.964616  37867.828052
  9713.986  9713.950  2.000  368.724598  398.487252  422.894698  110.238123  35228.467661  36012.548371  37386.448676  38304.586974
  9715.425  9715.410  2.000  366.644914  398.361523  422.873793  109.749734  34990.919388  35765.042881  37505.587627  37795.676674
  9716.902  9716.890  2.000  365.965006  398.207160  422.851311  109.536757  35113.242548  35627.874231  36957.720140  38031.048499
  9718.391  9718.390  2.000  363.139755  398.047907  422.817019  109.616932  34872.773025  35134.098632  36992.928242  37547.219597
  9719.934  9719.910  2.000  364.067261  397.918779  422.807436  109.855441  35245.463781  35250.163216  36815.339814  37558.233211
  9721.469  9721.450  2.000  369.594762  397.780321  422.783567  110.038004  35766.897836  35367.404211  37354.316644  38528.904281
  9723.013  9723.010  2.000  369.977710  397.644314  422.733578  110.136044  35739.497025  35367.404211  37482.667266  38529.964343
  9724.582  9724.580  2.000  368.030843  397.505533  422.715415  110.202262  35621.333425  35327.406111  37183.231186  38162.325635
  9726.201  9726.180  2.000  366.169553  397.354541  422.674567  110.177244  35428.353350  35026.878449  36795.484891  38248.418159
  9727.808  9727.790  2.000  367.836466  397.170830  422.621761  109.973754  35180.622402  36081.658819  36921.662105  37909.971116
  9729.435  9729.430  2.000  366.258906  397.116109  422.722498  109.647127  35164.105361  36081.658819  36440.843009  37760.704367
  9731.096  9731.080  2.000  353.664884  397.001798  422.718224  109.170272  34874.484850  33510.280169  35354.090381  36666.739393
  9732.766  9732.750  2.000  354.025616  396.857927  422.736080  108.551481  34213.236333  34166.502876  35204.959357  36913.173717
  9734.469  9734.440  2.000  350.852268  396.726285  422.704590  107.856670  34025.100387  33717.546157  34705.908115  36743.762067
  9736.161  9736.150  2.000  350.870755  396.568605  422.673084  107.237598  33846.898411  33714.557493  35246.814272  36336.055638
  9737.890  9737.880  2.000  352.627152  396.433341  422.676934  106.793809  33926.489569  34029.850533  35501.002337  36335.817465
  9739.652  9739.630  2.000  348.300766  396.298787  422.682840  106.619766  33926.489569  33413.802629  34740.709265  35950.169736
  9741.395  9741.390  2.000  345.913241  396.158889  422.728692  106.818028  33147.223554  33194.363614  35011.226431  35683.791923
  9743.179  9743.180  2.000  344.577168  396.030766  422.705615  107.400826  32578.655798  33688.245594  34751.922944  35444.335527
  9744.985  9744.980  2.000  341.836690  395.878276  422.662532  108.331144  32623.128648  33111.382476  34538.446660  35052.761731
  9746.824  9746.810  2.000  341.401060  395.732408  422.581723  109.429645  32326.419002  33075.078175  34647.426503  35054.539924
  9748.659  9748.650  2.000  336.464642  395.571595  422.577221  110.489448  32322.812742  32548.320142  33927.420365  34297.301943
  9750.516  9750.510  2.000  332.885141  395.409719  422.576766  111.351932  32034.279971  31721.782498  33223.103536  34646.853905
  9752.410  9752.390  2.000  329.180385  395.256509  422.555457  111.984461  31656.891732  31488.346376  33024.908936  33940.542763
  9754.306  9754.290  2.000  334.253298  395.098474  422.505604  112.487632  32163.808879  31884.978878  33376.372718  34637.807842
  9756.231  9756.210  2.000  340.387404  394.937839  422.478368  112.937160  32443.096992  32911.672769  34192.804374  34884.291590
  9758.160  9758.150  2.000  336.048528  394.765851  422.483807  113.423848  31940.594222  32041.366389  34195.877478  34482.644792
  9760.132  9760.110  2.000  338.917078  394.592641  422.423055  113.856553  32261.851604  32490.205936  34124.770831  34857.356600
  9762.092  9762.080  2.000  337.733404  394.428408  422.376403  114.134227  32315.245469  32135.580275  33836.330507  34924.492570
  9764.086  9764.080  2.000  337.523123  394.251697  422.371563  114.100054  32379.740026  31939.332798  33903.589375  34846.401637
  9766.109  9766.090  2.000  332.377588  394.037061  422.386731  113.751735  32063.158075  31166.992653  33146.051226  34592.885945
  9768.134  9768.120  2.000  339.656351  393.814426  422.230509  113.178742  32298.152724  32738.697733  34298.034775  34426.685725
  9770.192  9770.180  2.000  341.500740  393.497896  422.021448  112.504238  32450.911375  32795.638210  34305.088116  34828.184775
  9772.260  9772.250  2.000  339.690694  392.831269  421.469226  111.752836  32278.543995  32192.614166  33988.541346  34981.426792
  9774.340  9774.340  2.000  336.557674  391.417889  420.145527  110.744849  32245.540949  31620.479717  33213.982880  34654.690685
  9776.471  9776.450  2.000  341.997102  394.573193  423.730144  110.962384  32517.212533  32546.525797  34287.305358  35591.844956
  9778.604  9778.580  2.000  335.828698  394.294952  423.539959  110.140163  32458.898237  31313.500878  33350.696016  35292.465096
  9780.728  9780.720  2.000  339.368120  393.896249  423.290582  109.421779  32799.788172  31838.323343  33627.132473  35410.585552
  9782.912  9782.890  2.000  342.540182  389.787543  419.055183  107.936559  32576.960862  31766.842614  33846.070724  35328.021580
  9785.101  9785.080  2.000  350.340952  393.966795  423.702214  109.078160  33495.651421  33171.871723  35117.945658  36237.233162
  9787.295  9787.280  2.000  355.485950  393.753747  423.628942  109.252258  33717.405401  33979.439114  35792.202976  36484.877607
  9789.523  9789.500  2.000  353.036282  393.296343  423.301724  109.449375  33459.195512  33728.926480  35338.328862  36321.427872
  9791.777  9791.750  2.000  357.915843  387.307340  417.038972  108.105735  32974.747819  34158.885861  35397.711047  36092.088300
  9794.028  9794.010  2.000  357.838823  393.499016  423.879081  110.107990  33842.115078  34356.020207  36076.461612  36534.627689
  9796.313  9796.290  2.000  359.663057  393.212710  423.726125  110.315260  33481.526615  34670.407092  36365.775433  36906.376095
  9798.608  9798.590  2.000  353.266756  392.912744  423.581386  110.592851  33228.300472  33839.053434  35435.315226  36300.341389
  9800.936  9800.910  2.000  352.121505  392.349360  423.221286  110.933378  33449.759317  33551.406456  35213.831315  35939.649895
  9803.275  9803.250  2.000  356.162312  389.855785  420.727620  110.812598  32831.942794  33885.971697  35741.734896  36392.288418
  9805.606  9805.600  2.000  356.547119  392.447373  423.600589  112.140707  33319.429956  34284.833417  36077.484014  36244.232984
  9808.005  9807.980  2.000  349.722688  392.236774  423.552544  112.746019  33204.846675  32898.521099  35137.048446  35933.682496
  9810.396  9810.370  2.000  350.837263  392.033806  423.532341  113.383231  33005.960205  33324.230826  35303.197512  35906.678860
  9812.802  9812.790  2.000  347.925769  391.789757  423.502286  114.069352  32787.450217  33032.689670  34820.428615  35673.183944
  9815.242  9815.220  2.000  350.327889  391.578951  423.426423  114.771568  32751.831493  33537.370283  35435.068331  35456.757206
  9817.683  9817.670  2.000  352.826741  391.441936  423.442094  115.425535  32842.862741  33647.797453  35858.098344  35762.423907
  9820.171  9820.150  2.000  348.618587  389.245494  421.237675  115.249852  32057.553124  32968.337119  35153.616370  35518.707552
  9822.665  9822.640  2.000  350.065431  390.756717  423.069064  115.778323  32684.754677  33630.490483  35103.663389  35371.509851
  9825.172  9825.150  2.000  350.352565  390.656112  423.178580  115.417123  32804.206064  33417.305248  35230.067799  35415.791978
  9827.693  9827.670  2.000  348.480757  388.843192  421.389792  114.332361  32804.206064  32910.251230  34453.474119  35336.438700
  9830.241  9830.220  2.000  350.750129  390.179332  423.026976  114.225109  32828.901869  33635.919371  35118.905510  35271.724448
  9832.819  9832.790  2.000  350.422326  389.995571  422.997894  113.809114  32810.333066  33336.219329  34908.414331  35608.188460
  9835.387  9835.370  2.000  325.146430  387.940375  420.965997  113.063798  31505.588739  29679.706480  31316.562488  33635.570136
  9838.009  9837.980  2.000  347.212060  389.651852  423.032667  113.585562  32112.221246  33136.856633  34831.325888  35211.418548
  9840.600  9840.600  2.000  348.978013  389.484163  423.098508  113.640191  32468.763216  33323.390585  35053.823935  35075.431532
  9843.272  9843.250  2.000  348.455506  386.948029  420.530803  112.953998  32218.469234  32777.916667  34996.339008  34841.446466
  9845.920  9845.910  2.000  348.106135  388.918060  422.839275  113.500445  32001.696328  33420.352458  34694.157198  35268.556408
  9848.603  9848.590  2.000  347.561507  388.794519  422.914415  113.449654  31975.417913  33024.665786  34942.565833  35187.359696
  9851.309  9851.290  2.000  348.867367  388.600446  422.896611  113.354886  32297.596366  33276.316375  34971.779022  35024.322606
  9854.041  9854.010  2.000  347.503040  388.398887  422.893408  113.260605  31710.338051  33025.871376  34876.730424  35356.854233
  9856.767  9856.750  2.000  348.191897  388.168827  422.896374  113.165968  31782.050852  33618.820379  34803.279665  34953.089011
  9859.519  9859.500  2.000  348.868917  387.941081  422.829074  113.123161  32259.605898  32899.651761  34682.147296  35499.179925
  9862.298  9862.280  2.000  352.388886  387.722776  422.762007  113.169365  32289.902036  33349.463001  35430.587703  35559.244412
  9865.096  9865.070  2.000  350.856200  387.481096  422.725550  113.296517  32313.871296  33192.230874  34855.655842  35588.386982
  9867.920  9867.890  2.000  348.536260  387.271494  422.670223  113.498909  32208.372083  32891.719509  34916.787725  34961.278537
  9870.746  9870.720  2.000  351.646176  387.021856  422.627785  113.866741  32122.230565  33431.569162  35217.168403  35323.787658
  9873.587  9873.570  2.000  349.197847  386.775790  422.578446  114.363924  32377.839843  32777.428597  34589.131826  35316.872634
  9876.466  9876.450  2.000  350.505500  386.550877  422.527305  114.942995  32028.580352  33093.022380  35022.764612  35343.840818
  9879.352  9879.340  2.000  347.878290  386.058595  422.177016  115.481872  31657.498725  33067.785862  34506.897658  35069.221773
  9882.253  9882.250  2.000  349.898911  377.852875  413.435968  113.704878  31350.568444  32632.571638  33976.362113  34250.807169
  9885.184  9885.170  2.000  345.876301  385.291344  421.854475  116.595163  32014.729738  32226.687313  34239.617486  34782.110399
  9888.130  9888.120  2.000  348.512428  385.277450  422.011778  117.095470  31775.476223  33031.103346  34429.997098  35037.402572
  9891.099  9891.090  2.000  349.797361  385.094380  422.049562  117.431115  31830.762063  33108.242289  34884.793905  34881.199441
  9894.091  9894.070  2.000  346.136516  384.860908  422.032285  117.611928  31806.136392  32208.496447  34380.792225  34818.988966
  9897.098  9897.080  2.000  346.537085  384.598041  421.934970  117.630248  31675.597512  32632.294583  34210.679099  34758.912822
  9900.115  9900.100  2.000  342.035423  384.379997  421.912594  117.550912  31494.736790  31836.827394  33552.436668  34587.573781
  9903.167  9903.150  2.000  349.181749  384.142231  421.891646  117.401150  31677.848180  32444.117983  35088.187320  34925.302887
  9906.226  9906.210  2.000  349.496770  383.885503  421.826900  117.241031  31423.666578  32914.917092  34547.192022  35280.967442
  9909.317  9909.290  2.000  348.576740  383.642588  421.759041  117.123864  31752.147996  32661.435286  34558.264029  34757.035200
  9912.405  9912.390  2.000  347.858210  383.382158  421.690665  117.047296  31425.026432  32561.232434  34334.873504  35041.498654
  9915.534  9915.510  2.000  347.453263  383.129367  421.653387  117.046439  31643.605624  32505.143900  34569.354032  34401.445202
  9918.668  9918.650  2.000  346.871427  382.857823  421.590821  117.068285  31535.803933  32298.844702  34291.867389  34675.923438
  9921.814  9921.800  2.000  348.171433  382.579064  421.500722  117.106084  31460.582883  32609.463082  34299.861548  34833.193729
  9924.995  9924.980  2.000  346.667016  382.270635  421.386830  117.127430  31170.676894  32120.640377  34500.304648  34728.998214
  9928.187  9928.170  2.000  346.373291  381.861078  421.167259  117.125636  31470.155586  32256.591615  33862.932809  34676.798354
  9931.398  9931.390  2.000  346.239572  376.714579  415.732214  115.675501  31143.430508  31717.049420  33539.670325  34033.344212
  9934.641  9934.620  2.000  343.517373  381.696346  421.458903  117.360332  31268.760062  31537.644488  33807.174513  34505.746838
  9937.887  9937.870  2.000  347.086466  382.660396  422.819478  117.863533  31268.760062  32480.280612  34293.953522  34773.250300
  9941.177  9941.150  2.000  346.010697  382.327853  422.601682  117.952708  31370.701574  32157.873703  34203.972600  34556.978987
  9944.457  9944.440  2.000  344.215805  382.008043  422.498059  118.086750  31106.417642  31984.555173  33879.359021  34522.874173
  9947.777  9947.750  2.000  340.494536  381.667947  422.365236  118.246309  31117.474907  31101.046427  33223.366239  34513.963166
  9951.100  9951.070  2.000  342.290027  380.794614  421.633635  118.277963  31164.527826  31478.636880  33472.765567  34226.268239
  9954.442  9954.420  2.000  340.655674  376.894810  417.575861  117.415098  30392.118436  31019.071887  33076.392676  33903.772443
  9957.825  9957.790  2.000  343.281148  380.742737  422.077180  119.013172  30875.485806  31914.232766  33742.960260  34169.125041
  9961.184  9961.170  2.000  343.943744  380.442414  421.953238  119.374992  31155.298447  31978.548337  33573.870343  34143.071332
  9964.593  9964.580  2.000  341.788019  379.794149  421.520175  119.682934  30763.664537  31331.436020  33829.335427  33884.653622
  9968.005  9968.000  2.000  346.429981  368.330614  409.007632  116.510641  29946.884256  31196.132473  32954.175825  33503.574832
  9971.457  9971.450  2.000  345.171021  380.164995  422.378773  120.648088  31126.773783  32142.802114  33818.181698  34134.181869
  9974.921  9974.910  2.000  342.978551  379.732930  422.166074  120.831272  30960.138970  32118.902951  33536.926087  33624.282061
  9978.417  9978.390  2.000  343.465346  379.300090  421.949258  120.962784  31021.559728  31429.638265  33909.396022  33915.842777
  9981.916  9981.890  2.000  344.521853  377.865485  420.636223  120.734055  30455.562734  31966.375552  33564.686251  34196.292225
  9985.439  9985.410  2.000  341.118705  377.136353  420.069736  120.724530  30937.098130  30936.751833  33235.314127  33539.100052
  9988.981  9988.950  2.000  340.005117  378.266687  421.503965  121.303551  30613.805717  31004.869216  33646.127857  33347.806265
  9992.531  9992.500  2.000  342.248733  377.883498  421.322675  121.404343  30724.390200  31469.673050  33628.947536  33507.137782
  9996.109  9996.080  2.000  340.396982  376.950071  420.553589  121.288355  30267.124413  31437.548666  32936.631273  33671.362266
  9999.707  9999.680  2.000  342.152381  374.202182  417.789633  120.564350  30246.649322  31183.563831  33018.215850  33585.738448
  10003.316  10003.290  2.000  341.208881  377.556521  421.831853  121.823448  30894.122407  31226.575076  33256.705765  33448.234892
  10006.941  10006.920  2.000  340.917413  377.091103  421.508245  121.838620  30529.991330  31330.860140  33071.471961  33624.599935
  10010.612  10010.580  2.000  337.657785  376.563909  421.168119  121.845748  30042.642539  31281.275751  32912.723995  32913.092906
  10014.277  10014.250  2.000  340.334987  367.595528  411.404979  119.118693  29815.784817  30331.236455  32164.910284  32793.687931
  10017.970  10017.940  2.000  339.417324  375.971201  420.974891  121.989707  30328.449068  30927.092451  32899.203228  33456.394180
  10021.680  10021.650  2.000  339.487441  375.760799  420.996658  122.100491  29860.838575  30998.204235  33483.999710  33223.029560
  10025.414  10025.380  2.000  343.471479  375.407053  420.870017  122.178176  30301.932956  31183.503307  33600.173313  33856.006286
  10029.151  10029.120  2.000  340.670832  375.029002  420.702775  122.265387  30416.863148  30874.947990  33337.880132  33131.751115
  10032.913  10032.890  2.000  340.176801  374.382421  420.224686  122.282791  29930.399852  30995.268841  32751.865910  33678.679735
  10036.703  10036.680  2.000  342.604476  370.842989  416.491243  121.369964  29903.060396  30914.243215  32858.170001  33376.994230
  10040.506  10040.480  2.000  340.324261  374.394986  420.758591  122.830661  30307.813668  30604.443200  33181.366986  33322.072950
  10044.346  10044.310  2.000  340.773460  374.029386  420.649250  123.054697  30180.027256  31266.630229  32855.906420  33156.724054
  10048.176  10048.150  2.000  341.046647  373.678655  420.555621  123.314360  30080.398014  31123.410530  32985.177268  33252.866295
  10052.013  10052.010  2.000  334.759106  373.349173  420.420897  123.576148  29614.913209  30164.746453  32225.906622  32976.469057
  10055.902  10055.890  2.000  340.380228  373.002358  420.256809  123.831892  29727.438684  30763.704391  33173.503383  33297.981115
  10059.811  10059.790  2.000  341.927368  372.672150  420.158857  124.097683  29821.080636  31079.314988  33289.599668  33236.812043
  10063.706  10063.710  2.000  341.263170  372.334049  420.039208  124.314943  29727.248363  31196.631151  33125.428123  33014.590462
  10067.665  10067.650  2.000  341.218225  372.013269  419.960298  124.520248  30029.016831  31009.244471  32987.114063  32912.331870
  10071.631  10071.610  2.000  342.362913  371.677609  419.829313  124.680606  29523.334752  30983.239841  33456.029043  33286.025147
  10075.584  10075.580  2.000  339.953422  371.299728  419.666159  124.832866  29708.298825  30820.972917  32723.882472  32971.458829
  10079.583  10079.580  2.000  339.813484  370.949770  419.559061  125.011695  29880.864961  30681.849522  32515.485068  32975.534232
  10083.599  10083.590  2.000  341.870006  370.606677  419.420631  125.177390  29810.152764  30908.189010  32929.189036  33051.775873
  10087.632  10087.630  2.000  341.392583  365.162312  413.569048  123.633345  29045.608033  30460.799226  32592.207125  32565.090716
  10091.663  10091.680  2.000  342.006600  369.352209  418.652639  125.352133  29899.225563  30632.550101  32795.765317  32993.352178
  10095.764  10095.750  2.000  338.339967  369.319483  418.800440  125.593090  29868.562979  30214.021642  32145.859990  32727.097054
  10099.841  10099.840  2.000  339.710344  369.015809  418.805401  125.775177  29412.412610  30520.403840  32753.815482  32671.855341
  10103.967  10103.950  2.000  338.668444  368.697567  418.644203  125.896465  29483.954615  30439.305693  32385.213705  32557.757344
  10108.073  10108.080  2.000  337.654001  368.333176  418.523660  126.020545  29462.762543  30076.649928  32678.720693  32151.037298
  10112.236  10112.230  2.000  335.951757  367.981794  418.406304  126.143831  29179.548191  29846.227727  32305.100845  32293.253502
  10116.389  10116.390  2.000  339.047801  367.629206  418.348488  126.272542  29266.435004  30399.302517  32461.296926  32516.839286
  10120.590  10120.580  2.000  340.557623  367.219902  418.087774  126.349955  29266.435004  30399.302517  32804.927345  32588.872142
  10124.782  10124.780  2.000  339.907542  366.885015  418.004536  126.489552  29088.744900  30832.867718  32297.910782  32487.460101
  10129.034  10129.010  2.000  340.454466  366.463855  417.855001  126.604718  29283.559088  30455.440542  32410.247546  32615.008886
  10133.246  10133.250  2.000  338.272325  366.048845  417.569812  126.692560  28937.788061  30340.156903  32060.585312  32485.663522
  10137.541  10137.510  2.000  338.872946  365.688545  417.423987  126.838090  29615.533850  30004.581341  32005.467304  32296.372077
  10141.801  10141.790  2.000  340.006212  365.319119  417.310412  126.995489  29066.774571  30358.207312  32188.843762  32596.944248
  10146.094  10146.090  2.000  337.746834  364.948303  417.176850  127.172485  29139.976684  30263.059845  32069.616761  31787.480510
  10150.405  10150.410  2.000  338.555068  364.555356  416.990363  127.342091  28941.344377  30252.014386  32089.600813  32139.103847
  10154.765  10154.750  2.000  339.610957  364.160645  416.820196  127.540441  29017.999279  29894.344249  32217.824285  32542.777046
  10159.106  10159.110  2.000  339.988435  363.787899  416.707195  127.749568  28997.127576  30139.918727  32316.268260  32230.364058
  10163.482  10163.490  2.000  339.507078  364.303512  417.562920  128.259570  28997.127576  30139.918727  32433.380420  32113.194098
  10167.888  10167.880  2.000  338.276020  363.919231  417.403519  128.441177  28805.303110  30144.940922  32282.174129  31872.730805
  10172.312  10172.300  2.000  336.478435  363.502112  417.207338  128.614605  28450.602326  29746.247052  32048.693602  32065.078735
  10176.740  10176.730  2.000  339.010928  363.070829  416.989596  128.765169  28831.933103  30107.029581  31929.607562  32216.408344
  10181.172  10181.180  2.000  338.548295  362.696545  416.860030  128.951589  29010.574924  29706.130174  32087.697968  31985.893939
  10185.648  10185.650  2.000  338.862165  362.332885  416.736644  129.137512  28825.287902  29759.464262  32243.165092  31952.988645
  10190.133  10190.140  2.000  338.166994  361.889265  416.509462  129.287694  28701.867578  29964.715988  31814.547036  31897.874460
  10194.653  10194.650  2.000  337.294125  360.309926  414.994919  129.038948  28335.371275  29778.146187  31732.010293  31684.893376
  10199.178  10199.180  2.000  337.629133  361.065713  416.161926  129.613712  28335.371275  30154.028498  31732.010293  31684.893376
  10203.738  10203.730  2.000  339.754066  360.624066  415.930983  129.749496  28912.479153  29950.790515  31912.633648  31747.589134
  10208.288  10208.300  2.000  338.736840  360.166029  415.677061  129.888679  28291.762728  29819.461005  32121.744045  31768.535007
  10212.884  10212.880  2.000  339.737371  359.779811  415.523288  130.042639  28643.062325  29980.736678  31940.452553  31666.395295
  10217.474  10217.490  2.000  338.971595  359.376608  415.380030  130.199684  28276.813150  29662.220710  32153.913225  31725.514892
  10222.119  10222.110  2.000  339.053964  358.966590  415.205025  130.348457  28403.763061  29781.399069  31564.980758  31958.902346
  10226.759  10226.760  2.000  340.507196  358.557077  415.034955  130.490745  28352.450003  30083.878056  31925.407293  31729.529524
  10231.421  10231.420  2.000  339.843660  358.158709  414.908363  130.640161  28180.300564  29668.178352  31854.449487  32015.038000
  10236.106  10236.100  2.000  339.501185  357.691418  414.655563  130.757208  28221.599332  29852.539163  31683.094077  31679.427779
  10240.804  10240.800  2.000  338.053242  357.427783  414.630937  130.944463  28321.079543  29495.080200  31465.029729  31548.431246
  10245.524  10245.520  2.000  340.192033  356.983981  414.369673  131.058902  28402.910402  29703.442728  31793.414565  31543.338278
  10250.259  10250.260  2.000  338.644511  356.559009  414.145655  131.190260  28324.831734  29564.087858  31195.291631  31662.540059
  10255.020  10255.010  2.000  339.181751  356.118821  413.946242  131.331267  28324.831734  29564.087858  31237.545407  31662.540059
  10259.782  10259.790  2.000  335.403085  355.709581  413.762194  131.487426  28305.546153  28657.501323  30958.967111  31384.076282
  10264.598  10264.590  2.000  336.622092  355.262729  413.557898  131.643353  28145.488147  29281.506719  31116.026141  31046.262140
  10269.391  10269.400  2.000  337.654497  354.849808  413.354625  131.801782  27865.527673  29335.663404  31190.394500  31425.047888
  10274.226  10274.230  2.000  338.750123  354.315197  413.045721  131.925690  28096.092619  29350.822179  31544.981933  31032.419933
  10279.097  10279.090  2.000  338.573397  354.018284  413.025475  132.150149  28071.601242  29016.099346  31416.574766  31356.897556
  10283.964  10283.960  2.000  339.971171  353.555541  412.832274  132.310199  28034.200792  29221.511864  31451.816023  31491.162781
  10288.858  10288.850  2.000  340.696413  353.154899  412.613961  132.468863  27773.468040  29456.955073  31838.379249  31249.805082
  10293.757  10293.760  2.000  338.251386  352.754881  412.469724  132.656838  27843.942395  29062.091338  31285.354265  31128.439503
  10298.693  10298.690  2.000  339.097253  352.311466  412.189071  132.795883  27910.674596  29363.696807  31188.207275  31005.271463
  10303.634  10303.630  2.000  339.461172  351.839481  411.949939  132.944495  27910.674596  29123.211529  31294.492879  31107.463764
  10308.612  10308.600  2.000  338.840953  351.389906  411.712261  133.097666  27774.682961  29165.257028  31201.320850  30924.029635
  10313.595  10313.590  2.000  340.295699  350.906856  411.444140  133.239214  27833.761120  29113.305833  31425.660389  31039.366514
  10318.597  10318.590  2.000  338.290840  350.444710  411.217626  133.385992  27833.761120  28482.069342  31138.054286  31098.350530
  10323.626  10323.620  2.000  337.719444  350.043692  411.033028  133.549637  27669.748555  28482.069342  31188.506983  30876.235984
  10328.652  10328.660  2.000  337.097818  349.618243  410.858162  133.710913  27375.921268  28591.444959  31124.261797  30763.919082
  10333.733  10333.720  2.000  335.233882  349.139755  410.606065  133.856786  27591.282645  28429.218082  30264.977827  30757.996748
  10338.805  10338.800  2.000  336.117095  348.743065  410.441941  134.023623  27497.130006  28639.482278  30285.932930  30795.960726
  10343.911  10343.900  2.000  336.772459  348.281733  410.179816  134.154112  27561.321345  28431.227495  30611.383986  30687.762763
  10349.021  10349.020  2.000  336.621123  347.857044  409.984607  134.307844  27365.654538  28431.227495  30611.383986  30687.762763
  10354.174  10354.160  2.000  338.970923  347.422609  409.794309  134.454240  27252.111920  28722.774325  30869.004414  30922.271680
  10359.332  10359.320  2.000  339.561784  346.922947  409.527595  134.592779  27240.985175  29026.214397  31181.372228  30353.202717
  10364.514  10364.500  2.000  339.868236  346.447040  409.253403  134.712814  27137.552518  28807.800576  31076.148370  30724.842647
  10369.687  10369.690  2.000  338.414184  345.895928  408.911302  134.823169  27267.490666  28466.275891  31185.433884  30136.887949
  10374.912  10374.910  2.000  337.953919  345.419572  408.685602  134.962567  27080.795691  28501.258407  30814.705542  30339.138329
  10380.156  10380.140  2.000  339.179097  344.996446  408.441389  135.103774  27148.756481  28692.717247  30474.196279  30699.912977
  10385.392  10385.390  2.000  339.870095  344.537628  408.207398  135.247013  27000.061812  28722.652218  30793.693677  30581.628640
  10390.671  10390.660  2.000  338.827633  343.993967  407.869084  135.357907  27134.916117  28296.940563  30464.041130  30658.764066
  10395.960  10395.950  2.000  337.935840  343.523368  407.641724  135.508949  27161.915998  28218.786228  30597.367993  30110.787683
  10401.277  10401.260  2.000  338.800092  343.083637  407.415900  135.659361  27119.450194  28450.167959  30454.181393  30212.968523
  10406.601  10406.590  2.000  339.091236  342.619748  407.185978  135.810246  27121.305225  28414.053842  30377.988824  30266.005839
  10411.939  10411.940  2.000  337.929103  342.141378  406.911234  135.947119  26716.562638  28332.054063  30429.082601  30141.829392
  10417.320  10417.310  2.000  339.132516  341.657336  406.636352  136.086426  26931.024581  28403.194125  30463.160394  30069.732859
  10422.693  10422.690  2.000  338.988268  341.188934  406.406942  136.241383  27057.735791  28147.646643  30125.545735  30328.117683
  10428.100  10428.100  2.000  339.019816  340.724988  406.137312  136.382906  27081.408897  28171.712508  30420.088331  29839.312939
  10433.531  10433.520  2.000  338.205587  340.229666  405.828927  136.508824  26953.456692  27912.159593  30052.294347  30149.663283
  10438.983  10438.970  2.000  337.437851  339.744617  405.570293  136.656045  26583.233027  27989.450712  30221.703503  29848.306205
  10444.431  10444.430  2.000  337.850190  339.282725  405.351101  136.813059  26567.272618  27989.450712  30221.703503  29848.306205
  10449.912  10449.910  2.000  337.117109  338.823794  405.121689  136.964548  26463.325799  27716.817631  30085.565915  29957.588604
  10455.429  10455.410  2.000  338.637750  339.469955  406.282989  137.586640  26755.099763  27949.553335  30113.700350  30138.988199
  10460.937  10460.930  2.000  338.061024  339.147398  406.201710  137.793743  26563.605999  28053.740509  30224.807972  29810.362461
  10466.479  10466.470  2.000  337.152196  338.665738  405.874398  137.913267  26435.648638  27837.287658  30128.676106  29780.284766
  10472.027  10472.020  2.000  337.016665  338.190288  405.576684  138.046273  26435.648638  27837.287658  29857.306863  29845.519661
  10477.605  10477.600  2.000  339.461921  337.709991  405.351663  138.199078  26508.535579  28066.739701  29818.192509  30246.214559
  10483.209  10483.200  2.000  337.033279  337.200548  405.065813  138.330795  26584.194237  27934.608198  29668.071864  29460.932196
  10488.813  10488.810  2.000  337.710972  336.717018  404.794719  138.467540  26107.719833  27728.171059  30057.649735  29819.490758
  10494.457  10494.450  2.000  339.750007  336.213671  404.487510  138.598671  26250.612381  28118.886771  30084.701941  29774.396142
  10500.117  10500.100  2.000  339.363948  335.681432  404.143164  138.710700  26377.994384  28084.829860  29625.857800  29829.493861
  10505.773  10505.770  2.000  338.573053  335.193158  403.860861  138.838351  26238.912908  27818.283567  29790.091410  29640.083153
  10511.474  10511.460  2.000  337.474147  334.421068  403.284480  138.874461  25988.629418  27775.201687  29742.039550  29352.593734
