# XDI/1.0 BlueSky/1.5.0
# Beamline.name: 6BM
# Beamline.xray_source: NSLS-II three-pole wiggler
# Beamline.collimation: paraboloid mirror, 5 nm Rh on 30 nm Pt
# Beamline.focusing: not in use
# Beamline.harmonic_rejection: flat mirror, Si stripe, pitch = 7.0 mrad relative to beam
# Detector.i0: 10 cm N2
# Detector.i1: 25 cm N2
# Detector.i2: 25 cm N2
# Element.symbol: Ti
# Element.edge: K
# Facility.name: NSLS-II
# Facility.energy: 3.0
# Facility.current: 220.5
# Facility.mode: top-off
# Facility.gup: 301027
# Facility.saf: 304156
# Mono.name: Si(111)
# Mono.d_spacing: 3.1352584
# Mono.encoder_resolution: 0.0000050 deg/ct
# Mono.angle_offset: 16.0571090 deg
# Mono.scan_mode: pseudo channel cut
# Mono.scan_type: step
# Mono.direction: forward in energy
# Sample.name: Ni2TiO4
# Sample.prep: Powder in polyethylene glycol pellet
# Sample.x_position: -97.532 mm
# Sample.y_position: 117.543 mm
# Sample.wheel_position: -675.000 mm
# Scan.experimenters: Bruce Ravel, Martin Stennett
# Scan.edge_energy: 4966.0
# Scan.start_time: 2019-05-30T07:18:31
# Scan.end_time: 2019-05-30T08:01:24
# Scan.transient_id: 9803
# Scan.uid: ed959132-a19c-4420-bc6c-9cf9bcbae12f
# Scan.plot_hint: ln(I0/It)  --  ln($5/$6)
# Scan.sequence: merge of 3 scans
# Column.1: energy eV
# Column.2: requested_energy eV
# Column.3: measurement_time seconds
# Column.4: mutrans
# Column.5: i0
# Column.6: itrans
# Column.7: irefer
# /////
#  sample disk prepared by Martin
# -----
# energy   requested_energy   measurement_time   mutrans   i0   itrans   irefer
4765.998000 4766.000000 0.500000 3.925763 10.972600 0.216501 0.018205
4776.007000 4776.000000 0.500000 3.913665 11.169504 0.223024 0.018658
4786.009000 4786.000000 0.500000 3.886361 11.389657 0.233715 0.019704
4796.009000 4796.000000 0.500000 3.858393 11.603241 0.244851 0.021014
4806.010000 4806.000000 0.500000 3.831603 11.839174 0.256613 0.022217
4816.009000 4816.000000 0.500000 3.804723 12.050847 0.268317 0.023233
4826.007000 4826.000000 0.500000 3.777993 12.262014 0.280415 0.024780
4836.001000 4836.000000 0.500000 3.752164 12.479668 0.292857 0.026071
4846.001000 4846.000000 0.500000 3.725390 12.699670 0.306107 0.027598
4856.000000 4856.000000 0.500000 3.699020 12.915766 0.319632 0.029194
4866.004000 4866.000000 0.500000 3.673789 13.131502 0.333276 0.030721
4876.007000 4876.000000 0.500000 3.647943 13.348252 0.347652 0.032536
4886.006000 4886.000000 0.500000 3.622317 13.561721 0.362379 0.034146
4896.006000 4896.000000 0.500000 3.597744 13.764710 0.376952 0.036044
4906.003000 4906.000000 0.500000 3.572870 13.961006 0.391956 0.037741
4916.003000 4916.000000 0.500000 3.547484 14.149904 0.407473 0.040065
4926.003000 4926.000000 0.500000 3.524303 14.341882 0.422688 0.041536
4936.000000 4936.000000 0.500000 3.500368 14.534102 0.438730 0.043854
4938.001000 4938.000000 0.500000 3.494908 14.570880 0.442251 0.044236
4939.997000 4940.000000 0.500000 3.490605 14.608578 0.445304 0.044920
4941.998000 4942.000000 0.500000 3.485955 14.642826 0.448427 0.045333
4944.005000 4944.000000 0.500000 3.481438 14.676185 0.451488 0.045260
4946.004000 4946.000000 0.500000 3.476734 14.706477 0.454551 0.046111
4948.004000 4948.000000 0.500000 3.472076 14.739837 0.457711 0.046334
4950.003000 4950.000000 0.500000 3.467639 14.776808 0.460898 0.046871
4952.002000 4952.000000 0.500000 3.462866 14.813344 0.464247 0.047371
4954.003000 4954.000000 0.500000 3.458656 14.841775 0.467102 0.047541
4956.001000 4956.000000 0.500000 3.454014 14.868221 0.470109 0.047850
4956.246000 4956.250000 0.500000 3.453615 14.870933 0.470384 0.048134
4956.494000 4956.500000 0.500000 3.452776 14.873446 0.470854 0.048090
4956.746000 4956.750000 0.500000 3.452820 14.875722 0.470910 0.047858
4956.996000 4957.000000 0.500000 3.452134 14.876559 0.471261 0.047819
4957.247000 4957.250000 0.500000 3.451217 14.880909 0.471828 0.048297
4957.495000 4957.500000 0.500000 3.450806 14.884268 0.472130 0.047977
4957.747000 4957.750000 0.500000 3.450566 14.889214 0.472402 0.048131
4957.996000 4958.000000 0.500000 3.449917 14.889742 0.472724 0.048096
4958.243000 4958.250000 0.500000 3.449537 14.893517 0.473021 0.048392
4958.495000 4958.500000 0.500000 3.448802 14.897141 0.473484 0.048324
4958.744000 4958.750000 0.500000 3.448443 14.899285 0.473725 0.048262
4958.996000 4959.000000 0.500000 3.448039 14.900191 0.473945 0.048105
4959.247000 4959.250000 0.500000 3.447982 14.910111 0.474290 0.048376
4959.497000 4959.500000 0.500000 3.447542 14.909849 0.474488 0.048277
4959.748000 4959.750000 0.500000 3.446978 14.915499 0.474936 0.048106
4959.997000 4960.000000 0.500000 3.446530 14.917787 0.475221 0.048370
4960.246000 4960.250000 0.500000 3.445712 14.925128 0.475842 0.048277
4960.495000 4960.500000 0.500000 3.445364 14.927068 0.476067 0.048400
4960.746000 4960.750000 0.500000 3.445089 14.932696 0.476381 0.048237
4960.994000 4961.000000 0.500000 3.444563 14.932162 0.476611 0.048624
4961.246000 4961.250000 0.500000 3.444269 14.937261 0.476918 0.048287
4961.497000 4961.500000 0.500000 3.444193 14.938631 0.477001 0.047983
4961.747000 4961.750000 0.500000 3.443358 14.944739 0.477592 0.048079
4961.998000 4962.000000 0.500000 3.443119 14.947452 0.477794 0.048286
4962.247000 4962.250000 0.500000 3.442571 14.955140 0.478298 0.048174
4962.495000 4962.500000 0.500000 3.442319 14.959540 0.478561 0.048149
4962.746000 4962.750000 0.500000 3.442401 14.963128 0.478637 0.047883
4962.997000 4963.000000 0.500000 3.442148 14.969922 0.478974 0.047722
4963.247000 4963.250000 0.500000 3.442312 14.970847 0.478926 0.047620
4963.497000 4963.500000 0.500000 3.442081 14.975395 0.479182 0.046982
4963.749000 4963.750000 0.500000 3.442142 14.979609 0.479290 0.046570
4963.998000 4964.000000 0.500000 3.442139 14.988506 0.479576 0.045771
4964.248000 4964.250000 0.500000 3.442307 14.994127 0.479675 0.044555
4964.495000 4964.500000 0.500000 3.442206 14.995842 0.479780 0.042437
4964.749000 4964.750000 0.500000 3.443433 14.996302 0.479205 0.039137
4964.994000 4965.000000 0.500000 3.443373 15.001248 0.479390 0.036389
4965.249000 4965.250000 0.500000 3.445306 15.005897 0.478608 0.033818
4965.499000 4965.500000 0.500000 3.447085 15.007690 0.477817 0.033075
4965.748000 4965.750000 0.500000 3.449463 15.012582 0.476846 0.033140
4966.000000 4966.000000 0.500000 3.453404 15.019231 0.475174 0.033972
4966.248000 4966.250000 0.500000 3.459040 15.022788 0.472645 0.035205
4966.498000 4966.500000 0.500000 3.468090 15.027453 0.468527 0.035836
4966.748000 4966.750000 0.500000 3.481461 15.030129 0.462377 0.036095
4966.997000 4967.000000 0.500000 3.501113 15.030567 0.453417 0.035959
4967.252000 4967.250000 0.500000 3.532113 15.066983 0.440390 0.035113
4967.499000 4967.500000 0.500000 3.578532 15.071009 0.420496 0.033543
4967.751000 4967.750000 0.500000 3.652716 15.077999 0.390631 0.030854
4968.001000 4968.000000 0.500000 3.735536 15.083774 0.359897 0.028097
4968.250000 4968.250000 0.500000 3.777698 15.089957 0.345254 0.026665
4968.498000 4968.500000 0.500000 3.749781 15.093302 0.355007 0.026871
4968.746000 4968.750000 0.500000 3.673934 15.094072 0.382844 0.028221
4968.998000 4969.000000 0.500000 3.598737 15.099001 0.413079 0.030166
4969.248000 4969.250000 0.500000 3.549792 15.099253 0.433755 0.030963
4969.502000 4969.500000 0.500000 3.519665 15.098666 0.447126 0.031501
4969.750000 4969.750000 0.500000 3.501818 15.099616 0.455129 0.032149
4970.000000 4970.000000 0.500000 3.491099 15.106696 0.460239 0.032154
4970.248000 4970.250000 0.500000 3.484377 15.114753 0.463580 0.032491
4970.500000 4970.500000 0.500000 3.481226 15.123270 0.465335 0.032129
4970.750000 4970.750000 0.500000 3.478970 15.133798 0.466712 0.032061
4971.002000 4971.000000 0.500000 3.477072 15.145497 0.467971 0.031888
4971.252000 4971.250000 0.500000 3.474840 15.154533 0.469291 0.031914
4971.503000 4971.500000 0.500000 3.473814 15.160557 0.469965 0.031515
4971.750000 4971.750000 0.500000 3.471960 15.165012 0.470959 0.031287
4972.001000 4972.000000 0.500000 3.470434 15.170334 0.471852 0.030485
4972.247000 4972.250000 0.500000 3.469105 15.172901 0.472554 0.029911
4972.500000 4972.500000 0.500000 3.468818 15.178944 0.472882 0.029253
4972.749000 4972.750000 0.500000 3.468742 15.181753 0.473004 0.028986
4973.004000 4973.000000 0.500000 3.471236 15.204024 0.472506 0.028083
4973.251000 4973.250000 0.500000 3.474087 15.222300 0.471735 0.027638
4973.500000 4973.500000 0.500000 3.478572 15.228083 0.469823 0.026906
4973.749000 4973.750000 0.500000 3.485352 15.232548 0.466805 0.026072
4973.999000 4974.000000 0.500000 3.492873 15.235196 0.463370 0.025555
4974.251000 4974.250000 0.500000 3.501982 15.236291 0.459207 0.024732
4974.499000 4974.500000 0.500000 3.512343 15.237746 0.454483 0.024174
4974.754000 4974.750000 0.500000 3.523221 15.245009 0.449744 0.023457
4975.001000 4975.000000 0.500000 3.534558 15.243893 0.444672 0.022906
4975.254000 4975.250000 0.500000 3.545399 15.245262 0.439900 0.022475
4975.501000 4975.500000 0.500000 3.556745 15.249409 0.435103 0.021564
4975.751000 4975.750000 0.500000 3.565637 15.247506 0.431214 0.021048
4975.998000 4976.000000 0.500000 3.573470 15.245385 0.427795 0.020484
4976.253000 4976.250000 0.500000 3.579676 15.245914 0.425118 0.020158
4976.502000 4976.500000 0.500000 3.583765 15.248932 0.423470 0.019885
4976.752000 4976.750000 0.500000 3.585354 15.250311 0.422844 0.019303
4977.000000 4977.000000 0.500000 3.586246 15.284075 0.423402 0.019247
4977.252000 4977.250000 0.500000 3.584459 15.286186 0.424219 0.019122
4977.500000 4977.500000 0.500000 3.583309 15.288896 0.424778 0.018818
4977.750000 4977.750000 0.500000 3.583085 15.294337 0.425026 0.018531
4978.002000 4978.000000 0.500000 3.585331 15.294771 0.424083 0.018183
4978.250000 4978.250000 0.500000 3.587470 15.301201 0.423355 0.018117
4978.504000 4978.500000 0.500000 3.590982 15.300330 0.421830 0.018076
4978.752000 4978.750000 0.500000 3.595937 15.306686 0.419938 0.017935
4979.002000 4979.000000 0.500000 3.599981 15.305490 0.418214 0.017680
4979.249000 4979.250000 0.500000 3.603919 15.303733 0.416524 0.017790
4979.501000 4979.500000 0.500000 3.608581 15.303888 0.414590 0.017405
4979.750000 4979.750000 0.500000 3.614409 15.301553 0.412124 0.017274
4980.001000 4980.000000 0.500000 3.621619 15.297682 0.409045 0.016958
4980.252000 4980.250000 0.500000 3.630114 15.299923 0.405618 0.016926
4980.504000 4980.500000 0.500000 3.638036 15.298657 0.402380 0.016788
4980.751000 4980.750000 0.500000 3.646674 15.293590 0.398832 0.016670
4981.001000 4981.000000 0.500000 3.653109 15.293197 0.396268 0.016298
4981.250000 4981.250000 0.500000 3.656956 15.290139 0.394659 0.016180
4981.500000 4981.500000 0.500000 3.658731 15.291940 0.394003 0.016251
4981.751000 4981.750000 0.500000 3.657937 15.298022 0.394471 0.016312
4982.003000 4982.000000 0.500000 3.656959 15.300695 0.394933 0.016141
4982.253000 4982.250000 0.500000 3.653474 15.301787 0.396338 0.016201
4982.504000 4982.500000 0.500000 3.651148 15.304540 0.397330 0.016253
4982.752000 4982.750000 0.500000 3.650111 15.309414 0.397858 0.016254
4983.000000 4983.000000 0.500000 3.653211 15.311373 0.396694 0.016117
4983.248000 4983.250000 0.500000 3.658602 15.309110 0.394506 0.015985
4983.502000 4983.500000 0.500000 3.668660 15.311992 0.390597 0.015844
4983.751000 4983.750000 0.500000 3.682297 15.309245 0.385215 0.016046
4984.001000 4984.000000 0.500000 3.699625 15.310721 0.378677 0.015502
4984.251000 4984.250000 0.500000 3.717589 15.309323 0.371893 0.015443
4984.504000 4984.500000 0.500000 3.736320 15.311220 0.365021 0.015091
4984.749000 4984.750000 0.500000 3.753153 15.312724 0.359068 0.014925
4985.000000 4985.000000 0.500000 3.770299 15.315754 0.353011 0.014525
4985.249000 4985.250000 0.500000 3.786527 15.315683 0.347317 0.014673
4985.502000 4985.500000 0.500000 3.804073 15.316712 0.341254 0.014509
4985.752000 4985.750000 0.500000 3.821251 15.319061 0.335468 0.014316
4986.004000 4986.000000 0.500000 3.839983 15.316817 0.329183 0.014026
4986.251000 4986.250000 0.500000 3.857280 15.316857 0.323569 0.014078
4986.503000 4986.500000 0.500000 3.872386 15.317490 0.318722 0.013832
4986.748000 4986.750000 0.500000 3.884332 15.316250 0.314980 0.013586
4987.000000 4987.000000 0.500000 3.893393 15.313900 0.312063 0.013896
4987.251000 4987.250000 0.500000 3.899404 15.310517 0.310103 0.013613
4987.505000 4987.500000 0.500000 3.901556 15.310963 0.309443 0.013713
4987.753000 4987.750000 0.500000 3.901415 15.309897 0.309468 0.013879
4988.003000 4988.000000 0.500000 3.899228 15.314218 0.310232 0.013628
4988.253000 4988.250000 0.500000 3.893459 15.319817 0.312137 0.013672
4988.502000 4988.500000 0.500000 3.884399 15.329000 0.315159 0.013861
4988.749000 4988.750000 0.500000 3.874395 15.339095 0.318511 0.014057
4989.002000 4989.000000 0.500000 3.863133 15.352912 0.322456 0.013888
4989.251000 4989.250000 0.500000 3.852627 15.364029 0.326080 0.014150
4989.503000 4989.500000 0.500000 3.842141 15.375471 0.329790 0.014746
4989.752000 4989.750000 0.500000 3.834240 15.391404 0.332724 0.014723
4990.004000 4990.000000 0.500000 3.827368 15.406294 0.335366 0.014912
4990.252000 4990.250000 0.500000 3.821696 15.415257 0.337450 0.014817
4990.499000 4990.500000 0.500000 3.815224 15.426828 0.339872 0.014692
4990.750000 4990.750000 0.500000 3.811141 15.436811 0.341499 0.014778
4991.001000 4991.000000 0.500000 3.805153 15.450005 0.343852 0.015013
4991.253000 4991.250000 0.500000 3.800539 15.461747 0.345717 0.015126
4991.501000 4991.500000 0.500000 3.796035 15.473761 0.347538 0.015378
4991.753000 4991.750000 0.500000 3.793045 15.482053 0.348766 0.015401
4991.999000 4992.000000 0.500000 3.790582 15.489174 0.349777 0.015248
4992.250000 4992.250000 0.500000 3.788296 15.496452 0.350741 0.015560
4992.498000 4992.500000 0.500000 3.788316 15.503971 0.350912 0.015419
4992.752000 4992.750000 0.500000 3.787422 15.511499 0.351394 0.015599
4993.002000 4993.000000 0.500000 3.788768 15.516781 0.351043 0.015210
4993.253000 4993.250000 0.500000 3.789352 15.522224 0.350963 0.015542
4993.504000 4993.500000 0.500000 3.789026 15.529252 0.351233 0.015383
4993.752000 4993.750000 0.500000 3.789350 15.535212 0.351256 0.015474
4994.004000 4994.000000 0.500000 3.788710 15.538932 0.351575 0.015428
4994.248000 4994.250000 0.500000 3.785950 15.542315 0.352591 0.015564
4994.501000 4994.500000 0.500000 3.784642 15.546872 0.353177 0.015650
4994.751000 4994.750000 0.500000 3.782154 15.550352 0.354135 0.015240
4995.002000 4995.000000 0.500000 3.778187 15.556385 0.355686 0.015500
4995.251000 4995.250000 0.500000 3.775057 15.559105 0.356863 0.015401
4995.500000 4995.500000 0.500000 3.771561 15.560554 0.358139 0.015435
4995.753000 4995.750000 0.500000 3.767480 15.581833 0.360102 0.015554
4995.995000 4996.000000 0.700000 3.765711 21.677573 0.501845 0.021199
4997.088000 4997.080000 0.710000 3.762479 22.151646 0.514495 0.021401
4998.186000 4998.180000 0.730000 3.775024 22.779736 0.522511 0.021487
4999.299000 4999.290000 0.740000 3.792777 23.102486 0.520557 0.020915
5000.438000 5000.430000 0.750000 3.804029 23.453443 0.522563 0.020957
5001.586000 5001.580000 0.760000 3.803800 23.811319 0.530657 0.021471
5002.767000 5002.760000 0.780000 3.792591 24.490006 0.551937 0.022446
5003.956000 5003.950000 0.790000 3.781786 24.865578 0.566489 0.022897
5005.165000 5005.160000 0.800000 3.779484 25.243059 0.576409 0.023800
5006.396000 5006.390000 0.810000 3.784425 25.624584 0.582238 0.024909
5007.646000 5007.640000 0.830000 3.789653 26.319978 0.594924 0.025557
5008.915000 5008.910000 0.840000 3.787037 26.697073 0.605024 0.026774
5010.207000 5010.200000 0.850000 3.782137 27.072386 0.616549 0.027795
5011.516000 5011.510000 0.860000 3.777358 27.446317 0.628070 0.028292
5012.835000 5012.830000 0.880000 3.759684 28.135382 0.655300 0.029868
5014.185000 5014.180000 0.890000 3.734842 28.505223 0.680621 0.031175
5015.546000 5015.540000 0.900000 3.710339 28.894229 0.707037 0.032269
5016.935000 5016.930000 0.910000 3.690833 29.323570 0.731657 0.033832
5018.334000 5018.330000 0.930000 3.677916 30.025789 0.758910 0.035562
5019.756000 5019.750000 0.940000 3.670418 30.412947 0.774492 0.036342
5021.198000 5021.190000 0.950000 3.664371 30.803012 0.789195 0.037398
5022.655000 5022.650000 0.960000 3.658438 31.192578 0.803922 0.038138
5024.133000 5024.130000 0.980000 3.650499 31.913123 0.829032 0.039422
5025.636000 5025.630000 0.990000 3.640048 32.307154 0.848104 0.040011
5027.146000 5027.140000 1.000000 3.629321 32.700677 0.867696 0.040854
5028.686000 5028.680000 1.010000 3.619830 33.103630 0.886758 0.041527
5030.243000 5030.240000 1.030000 3.612752 33.823085 0.912457 0.041873
5031.813000 5031.810000 1.040000 3.606995 34.303728 0.930767 0.042245
5033.404000 5033.400000 1.050000 3.606601 34.706502 0.942070 0.041802
5035.015000 5035.010000 1.060000 3.610474 35.107730 0.949273 0.041443
5036.656000 5036.650000 1.080000 3.614218 35.844914 0.965589 0.041427
5038.298000 5038.300000 1.090000 3.614622 36.257932 0.976321 0.041500
5039.976000 5039.970000 1.100000 3.613692 36.666978 0.988255 0.041960
5041.651000 5041.650000 1.110000 3.613674 37.078290 0.999356 0.042685
5043.357000 5043.360000 1.130000 3.614947 37.825962 1.018213 0.043822
5045.088000 5045.090000 1.140000 3.619720 38.248128 1.024679 0.044962
5046.825000 5046.830000 1.150000 3.626781 38.665079 1.028553 0.045897
5048.598000 5048.600000 1.160000 3.630557 39.084919 1.035808 0.047052
5050.377000 5050.380000 1.180000 3.627931 39.855331 1.059001 0.048777
5052.175000 5052.180000 1.190000 3.621381 40.283460 1.077400 0.051047
5053.997000 5054.000000 1.200000 3.614765 40.717281 1.096240 0.052501
5055.833000 5055.840000 1.210000 3.608989 41.156340 1.114470 0.054301
5057.695000 5057.700000 1.230000 3.601309 41.936248 1.144356 0.055886
5059.573000 5059.580000 1.240000 3.592310 42.374536 1.166749 0.057049
5061.476000 5061.480000 1.250000 3.582575 42.818560 1.190539 0.058563
5063.392000 5063.400000 1.260000 3.573445 43.261266 1.213846 0.060121
5065.327000 5065.330000 1.280000 3.565957 44.067492 1.245786 0.061951
5067.287000 5067.290000 1.290000 3.560961 44.520553 1.264898 0.063619
5069.258000 5069.260000 1.300000 3.559881 44.975981 1.279213 0.064646
5071.256000 5071.260000 1.310000 3.562028 45.436943 1.289551 0.065346
5073.268000 5073.270000 1.330000 3.567259 46.246376 1.305678 0.066420
5075.298000 5075.300000 1.340000 3.572976 46.708663 1.311212 0.066333
5077.348000 5077.350000 1.350000 3.575931 47.180371 1.320550 0.066203
5079.416000 5079.420000 1.360000 3.574913 47.649760 1.335044 0.066034
5081.507000 5081.510000 1.380000 3.571559 48.473407 1.362687 0.066406
5083.606000 5083.610000 1.390000 3.566156 48.949639 1.383526 0.066490
5085.739000 5085.740000 1.400000 3.557887 49.432577 1.408781 0.066682
5087.887000 5087.890000 1.410000 3.550574 49.914710 1.432962 0.066641
5090.050000 5090.050000 1.430000 3.542537 50.755628 1.468868 0.067964
5092.229000 5092.230000 1.440000 3.533724 51.256979 1.496502 0.069347
5094.444000 5094.440000 1.450000 3.524666 51.762255 1.525017 0.071767
5096.658000 5096.660000 1.460000 3.513296 52.251861 1.557021 0.074944
5098.903000 5098.900000 1.480000 3.499485 53.116742 1.604848 0.079541
5101.163000 5101.160000 1.490000 3.484565 53.615099 1.644239 0.083325
5103.440000 5103.440000 1.500000 3.471828 54.131321 1.681329 0.087510
5105.742000 5105.740000 1.510000 3.462311 54.651877 1.713735 0.090116
5108.050000 5108.050000 1.530000 3.454624 55.530754 1.754717 0.092532
5110.389000 5110.390000 1.540000 3.447518 56.049545 1.783742 0.094661
5112.742000 5112.740000 1.550000 3.441693 56.578946 1.811121 0.095857
5115.120000 5115.120000 1.560000 3.438037 57.265994 1.839824 0.097492
5117.512000 5117.510000 1.580000 3.435563 58.163357 1.873286 0.099606
5119.920000 5119.920000 1.590000 3.435142 58.702802 1.891451 0.100833
5122.349000 5122.350000 1.600000 3.436000 59.240144 1.907131 0.101974
5124.798000 5124.800000 1.610000 3.435410 59.773174 1.925425 0.103501
5127.269000 5127.270000 1.630000 3.431205 60.684636 1.963015 0.106570
5129.763000 5129.760000 1.640000 3.425758 61.241345 1.991855 0.108148
5132.269000 5132.270000 1.650000 3.421879 61.791597 2.017559 0.109937
5134.789000 5134.790000 1.660000 3.420378 62.348912 2.038815 0.111247
5137.339000 5137.340000 1.680000 3.416908 63.289194 2.076753 0.113097
5139.898000 5139.900000 1.690000 3.410292 63.881517 2.110100 0.114225
5142.493000 5142.490000 1.700000 3.401651 64.458031 2.147633 0.115732
5145.090000 5145.090000 1.710000 3.392234 65.030812 2.187225 0.117126
5147.710000 5147.710000 1.730000 3.382471 66.072790 2.244056 0.119476
5150.350000 5150.350000 1.740000 3.374134 66.731885 2.285413 0.122123
5153.011000 5153.010000 1.750000 3.367651 67.319187 2.320525 0.124346
5155.691000 5155.690000 1.760000 3.361489 67.916987 2.355614 0.127648
5158.387000 5158.390000 1.780000 3.355205 68.889628 2.404395 0.131956
5161.109000 5161.110000 1.790000 3.350144 69.471680 2.437012 0.134907
5163.841000 5163.840000 1.800000 3.345309 70.076524 2.470156 0.137914
5166.600000 5166.600000 1.810000 3.338832 70.838791 2.513248 0.141530
5169.370000 5169.370000 1.830000 3.331927 71.817633 2.565625 0.145765
5172.170000 5172.170000 1.840000 3.326849 72.417004 2.600208 0.149333
5174.981000 5174.980000 1.850000 3.323982 73.010010 2.629030 0.152948
5177.808000 5177.810000 1.860000 3.321858 73.600289 2.655918 0.155753
5180.660000 5180.660000 1.880000 3.318732 74.628342 2.701450 0.160011
5183.530000 5183.530000 1.890000 3.314792 75.256619 2.734949 0.162363
5186.419000 5186.420000 1.900000 3.310670 75.855770 2.768103 0.165372
5189.322000 5189.320000 1.910000 3.305800 76.473546 2.804278 0.167958
5192.250000 5192.250000 1.930000 3.299450 77.479685 2.859264 0.170869
5195.200000 5195.200000 1.940000 3.291675 78.081995 2.903979 0.174216
5198.161000 5198.160000 1.950000 3.284662 78.653334 2.945819 0.177569
5201.140000 5201.140000 1.960000 3.276844 79.268536 2.992164 0.180350
5204.150000 5204.150000 1.980000 3.266408 80.323002 3.063777 0.184339
5207.170000 5207.170000 1.990000 3.254013 80.958411 3.126533 0.188051
5210.212000 5210.210000 2.000000 3.242525 81.584454 3.187112 0.191800
5213.270000 5213.270000 2.010000 3.233572 82.197887 3.239939 0.194979
5216.351000 5216.350000 2.030000 3.225308 83.231884 3.307927 0.200394
5219.452000 5219.450000 2.040000 3.218002 83.884757 3.358325 0.204808
5222.559000 5222.560000 2.050000 3.211955 84.553786 3.405633 0.209184
5225.701000 5225.700000 2.060000 3.207343 85.214549 3.448121 0.212613
5228.848000 5228.850000 2.080000 3.203523 86.282752 3.504702 0.216396
5232.032000 5232.030000 2.090000 3.198743 86.937590 3.548228 0.221107
5235.219000 5235.220000 2.100000 3.193383 87.625671 3.595523 0.225708
5238.429000 5238.430000 2.110000 3.187218 88.325453 3.646642 0.230604
5241.663000 5241.660000 2.130000 3.180247 89.414157 3.717434 0.236682
5244.921000 5244.920000 2.140000 3.173307 90.048670 3.769877 0.241934
5248.182000 5248.180000 2.150000 3.167294 90.209254 3.799388 0.245936
5251.469000 5251.470000 2.160000 3.162073 90.982574 3.852003 0.250840
5254.781000 5254.780000 2.180000 3.156865 92.668764 3.943887 0.259085
5258.109000 5258.110000 2.190000 3.150837 93.494511 4.003079 0.264337
5261.451000 5261.450000 2.200000 3.144331 94.195574 4.059439 0.269882
5264.821000 5264.820000 2.210000 3.137260 94.977485 4.122174 0.274871
5268.201000 5268.200000 2.230000 3.129622 96.187865 4.206715 0.281748
5271.601000 5271.600000 2.240000 3.121434 96.939525 4.274439 0.286821
5275.029000 5275.030000 2.250000 3.112354 97.779391 4.350798 0.292942
5278.472000 5278.470000 2.260000 3.103876 97.335768 4.367939 0.294663
5281.929000 5281.930000 2.280000 3.095622 99.543435 4.504021 0.304441
5285.403000 5285.400000 2.290000 3.088180 100.605751 4.586102 0.311258
5288.900000 5288.900000 2.300000 3.081470 101.356879 4.651453 0.316600
5292.421000 5292.420000 2.310000 3.075088 102.100316 4.715549 0.322908
5295.961000 5295.960000 2.330000 3.069440 103.329304 4.799354 0.330523
5299.509000 5299.510000 2.340000 3.064554 104.003956 4.854329 0.336122
5303.092000 5303.090000 2.350000 3.059267 104.736988 4.914472 0.342328
5306.679000 5306.680000 2.360000 3.054013 105.532098 4.977862 0.348564
5310.289000 5310.290000 2.380000 3.048902 106.760590 5.061605 0.355947
5313.920000 5313.920000 2.390000 3.043145 107.650574 5.133285 0.362690
5317.570000 5317.570000 2.400000 3.036382 108.519645 5.209826 0.370713
5321.242000 5321.240000 2.410000 3.029093 109.052481 5.273727 0.377416
5324.927000 5324.930000 2.430000 3.020757 110.151508 5.371436 0.386397
5328.641000 5328.640000 2.440000 3.012395 110.714639 5.444250 0.394090
5332.362000 5332.360000 2.450000 3.003974 111.285007 5.518588 0.402161
5336.108000 5336.110000 2.460000 2.995308 112.083484 5.606536 0.411214
5339.871000 5339.870000 2.480000 2.987796 113.313664 5.710809 0.421746
5343.660000 5343.660000 2.490000 2.980246 114.033967 5.790687 0.430742
5347.460000 5347.460000 2.500000 2.971840 114.640228 5.870607 0.439488
5351.282000 5351.280000 2.510000 2.963192 115.114759 5.946118 0.447119
5355.120000 5355.120000 2.530000 2.955335 115.472748 6.011655 0.454940
5358.980000 5358.980000 2.540000 2.947812 117.201887 6.147741 0.467028
5362.863000 5362.860000 2.550000 2.940810 117.850337 6.225203 0.474863
5366.760000 5366.760000 2.560000 2.933881 118.413144 6.298422 0.482044
5370.680000 5370.680000 2.580000 2.926766 119.418740 6.397264 0.491422
5374.610000 5374.610000 2.590000 2.919295 120.030423 6.478237 0.499787
5378.570000 5378.570000 2.600000 2.912013 120.617726 6.557523 0.508611
5382.540000 5382.540000 2.610000 2.905288 121.226356 6.635095 0.517502
5386.541000 5386.540000 2.630000 2.898864 122.230915 6.733177 0.528065
5390.550000 5390.550000 2.640000 2.892140 122.689554 6.804028 0.536717
5394.578000 5394.580000 2.650000 2.885104 123.263663 6.884142 0.546263
5398.631000 5398.630000 2.660000 2.878231 123.474899 6.943507 0.554180
5402.700000 5402.700000 2.680000 2.871000 124.885172 7.073776 0.567214
5406.788000 5406.790000 2.690000 2.863234 125.310513 7.153205 0.577560
5410.899000 5410.900000 2.700000 2.854751 125.817638 7.243321 0.587991
5415.022000 5415.020000 2.710000 2.846531 126.406565 7.337318 0.598945
5419.169000 5419.170000 2.730000 2.838384 126.795190 7.420054 0.609611
5423.330000 5423.330000 2.740000 2.830411 127.651296 7.529978 0.622301
5427.521000 5427.520000 2.750000 2.822308 128.190054 7.623276 0.633847
5431.721000 5431.720000 2.760000 2.814897 128.928661 7.724224 0.646144
5435.940000 5435.940000 2.780000 2.807579 130.004468 7.845884 0.660443
5440.181000 5440.180000 2.790000 2.800347 130.588144 7.938318 0.672049
5444.442000 5444.440000 2.800000 2.792745 131.200553 8.036417 0.683644
5448.722000 5448.720000 2.810000 2.785633 131.802658 8.130910 0.695555
5453.021000 5453.020000 2.830000 2.778441 132.906744 8.258217 0.710717
5457.341000 5457.340000 2.840000 2.771218 133.586074 8.360587 0.723637
5461.672000 5461.670000 2.850000 2.764080 134.294121 8.465102 0.736031
5466.031000 5466.030000 2.860000 2.757189 135.035926 8.570723 0.749320
5470.401000 5470.400000 2.880000 2.749843 136.463039 8.725180 0.767129
5474.799000 5474.800000 2.890000 2.742433 137.344990 8.846861 0.781344
5479.212000 5479.210000 2.900000 2.734946 138.144252 8.965208 0.796174
5483.642000 5483.640000 2.910000 2.727463 138.935457 9.084310 0.811409
5488.091000 5488.090000 2.930000 2.719968 140.209064 9.236543 0.829125
5492.558000 5492.560000 2.940000 2.711714 141.020604 9.366999 0.845922
5497.050000 5497.050000 2.950000 2.703164 141.875358 9.504691 0.863281
5501.560000 5501.560000 2.960000 2.695420 142.683117 9.633102 0.879432
5506.081000 5506.080000 2.980000 2.687158 143.996428 9.802448 0.899964
5510.630000 5510.630000 2.990000 2.678916 144.806202 9.939177 0.917283
5515.188000 5515.190000 3.000000 2.670817 145.725573 10.083540 0.935921
5519.780000 5519.780000 3.010000 2.662877 146.609486 10.225591 0.954498
5524.383000 5524.380000 3.030000 2.655188 148.015235 10.403334 0.976515
5529.001000 5529.000000 3.040000 2.647377 148.966270 10.552294 0.996401
5533.639000 5533.640000 3.050000 2.639643 149.876815 10.699205 1.016480
5538.299000 5538.300000 3.060000 2.632081 150.778344 10.845284 1.035861
5542.982000 5542.980000 3.080000 2.624229 152.180110 11.032436 1.060268
5547.681000 5547.680000 3.090000 2.616448 153.101352 11.185890 1.080397
5552.400000 5552.400000 3.100000 2.608896 154.053854 11.340777 1.101988
5557.129000 5557.130000 3.110000 2.601334 154.970735 11.494883 1.122945
5561.889000 5561.890000 3.130000 2.593618 156.677766 11.711534 1.150715
5566.658000 5566.660000 3.140000 2.585906 157.627608 11.873740 1.172907
5571.461000 5571.460000 3.150000 2.578340 158.518401 12.031540 1.194984
5576.271000 5576.270000 3.160000 2.570412 159.444274 12.198118 1.218805
5581.101000 5581.100000 3.180000 2.562397 160.882153 12.407202 1.246636
5585.953000 5585.950000 3.190000 2.554422 161.854582 12.582159 1.270776
5590.822000 5590.820000 3.200000 2.546372 163.007882 12.774198 1.297236
5595.709000 5595.710000 3.210000 2.538562 164.053514 12.956925 1.323424
5600.621000 5600.620000 3.230000 2.530616 165.442775 13.170928 1.353377
5605.538000 5605.540000 3.240000 2.522728 166.344208 13.347506 1.378314
5610.489000 5610.490000 3.250000 2.514999 167.268709 13.525844 1.404701
5615.451000 5615.450000 3.260000 2.507070 168.253322 13.713785 1.432909
5620.441000 5620.440000 3.280000 2.499183 169.615563 13.934279 1.464002
5625.441000 5625.440000 3.290000 2.491615 170.123549 14.082197 1.488519
5630.462000 5630.460000 3.300000 2.484240 170.785696 14.241686 1.514321
5635.501000 5635.500000 3.310000 2.476196 171.488144 14.415751 1.541503
5640.560000 5640.560000 3.330000 2.468268 172.967253 14.655807 1.577078
5645.640000 5645.640000 3.340000 2.460735 173.722033 14.831065 1.605113
5650.741000 5650.740000 3.350000 2.452758 174.520263 15.018538 1.634204
5655.858000 5655.860000 3.360000 2.444804 175.418914 15.216403 1.665365
5660.988000 5660.990000 3.380000 2.436942 177.028180 15.477190 1.704025
5666.149000 5666.150000 3.390000 2.429196 178.168166 15.698012 1.738551
5671.321000 5671.320000 3.400000 2.421500 179.330198 15.922475 1.773590
5676.517000 5676.520000 3.410000 2.413803 180.629063 16.161654 1.810040
5681.728000 5681.730000 3.430000 2.406072 182.381383 16.445118 1.852293
5686.960000 5686.960000 3.440000 2.398431 183.442109 16.667632 1.888751
5692.209000 5692.210000 3.450000 2.390388 184.356174 16.885955 1.923699
5697.480000 5697.480000 3.460000 2.382517 185.377290 17.113653 1.961908
5702.773000 5702.770000 3.480000 2.374596 186.853311 17.387150 2.004695
5708.080000 5708.080000 3.490000 2.366559 187.782698 17.614585 2.042437
