# XDI/1.0 BlueSky/1.5.0
# Beamline.name: 6BM
# Beamline.xray_source: NSLS-II three-pole wiggler
# Beamline.collimation: paraboloid mirror, 5 nm Rh on 30 nm Pt
# Beamline.focusing: not in use
# Beamline.harmonic_rejection: flat mirror, Si stripe, pitch = 7.0 mrad relative to beam
# Detector.i0: 10 cm N2
# Detector.i1: 25 cm N2
# Detector.i2: 25 cm N2
# Element.symbol: Ti
# Element.edge: K
# Facility.name: NSLS-II
# Facility.energy: 3.0
# Facility.current: 220.0
# Facility.mode: top-off
# Facility.gup: 301027
# Facility.saf: 304156
# Mono.name: Si(111)
# Mono.d_spacing: 3.1352584
# Mono.encoder_resolution: 0.0000050 deg/ct
# Mono.angle_offset: 16.0571090 deg
# Mono.scan_mode: pseudo channel cut
# Mono.scan_type: step
# Mono.direction: forward in energy
# Sample.name: TiO2 rutile
# Sample.prep: Powder in polyethylene glycol pellet
# Sample.x_position: -97.532 mm
# Sample.y_position: 117.543 mm
# Sample.wheel_position: -435.000 mm
# Scan.experimenters: Bruce Ravel, Martin Stennett
# Scan.edge_energy: 4966.0
# Scan.start_time: 2019-05-29T19:44:03
# Scan.end_time: 2019-05-29T20:27:44
# Scan.transient_id: 9755
# Scan.uid: a441e553-4511-4c6f-a87d-f75b7327d180
# Scan.plot_hint: ln(I0/It)  --  ln($5/$6)
# Scan.sequence: merge of 3 scans
# Column.1: energy eV
# Column.2: requested_energy eV
# Column.3: measurement_time seconds
# Column.4: mutrans
# Column.5: i0
# Column.6: itrans
# Column.7: irefer
# /////
#  sample disk prepared by Martin
# -----
# energy   requested_energy   measurement_time   mutrans   i0   itrans   irefer
4765.985000 4766.000000 0.500000 3.821011 10.830792 0.237257 0.019936
4776.006000 4776.000000 0.500000 3.792224 11.054577 0.249230 0.020771
4786.008000 4786.000000 0.500000 3.763010 11.305103 0.262434 0.022477
4796.011000 4796.000000 0.500000 3.735676 11.555490 0.275682 0.023588
4806.009000 4806.000000 0.500000 3.708448 11.812830 0.289599 0.025074
4816.007000 4816.000000 0.500000 3.681680 12.061456 0.303716 0.026460
4826.007000 4826.000000 0.500000 3.653840 12.307149 0.318651 0.028177
4836.008000 4836.000000 0.500000 3.626753 12.556501 0.334034 0.029758
4846.004000 4846.000000 0.500000 3.599852 12.808870 0.350030 0.031624
4856.017000 4856.000000 0.500000 3.573838 13.059566 0.366298 0.033490
4866.013000 4866.000000 0.500000 3.547293 13.302836 0.383158 0.035458
4876.009000 4876.000000 0.500000 3.521239 13.545614 0.400451 0.037700
4886.005000 4886.000000 0.500000 3.495573 13.782972 0.418059 0.039633
4896.006000 4896.000000 0.500000 3.470059 14.021355 0.436279 0.041706
4906.002000 4906.000000 0.500000 3.445330 14.266516 0.455019 0.043803
4916.002000 4916.000000 0.500000 3.420315 14.505628 0.474364 0.046549
4926.004000 4926.000000 0.500000 3.395419 14.740691 0.494204 0.048949
4936.004000 4936.000000 0.500000 3.371507 14.970104 0.514044 0.051463
4938.003000 4938.000000 0.500000 3.367342 15.010963 0.517598 0.051950
4939.999000 4940.000000 0.500000 3.361965 15.054012 0.521881 0.052698
4942.008000 4942.000000 0.500000 3.358073 15.096246 0.525393 0.053156
4944.008000 4944.000000 0.500000 3.352566 15.136651 0.529703 0.053451
4946.007000 4946.000000 0.500000 3.348716 15.177089 0.533167 0.053885
4947.999000 4948.000000 0.500000 3.343784 15.210202 0.536963 0.054559
4950.007000 4950.000000 0.500000 3.338909 15.250412 0.541020 0.054985
4952.006000 4952.000000 0.500000 3.335013 15.287781 0.544463 0.055488
4954.007000 4954.000000 0.500000 3.330709 15.324497 0.548124 0.055983
4956.005000 4956.000000 0.500000 3.327290 15.395929 0.552561 0.056241
4956.245000 4956.250000 0.500000 3.326894 15.399321 0.552902 0.056571
4956.494000 4956.500000 0.500000 3.326117 15.401920 0.553422 0.056569
4956.745000 4956.750000 0.500000 3.325870 15.405932 0.553707 0.056397
4956.995000 4957.000000 0.500000 3.325862 15.408702 0.553811 0.056470
4957.245000 4957.250000 0.500000 3.325038 15.412735 0.554413 0.056724
4957.494000 4957.500000 0.500000 3.324342 15.415085 0.554882 0.056861
4957.744000 4957.750000 0.500000 3.324187 15.419210 0.555118 0.056462
4957.996000 4958.000000 0.500000 3.323726 15.422775 0.555503 0.056737
4958.245000 4958.250000 0.500000 3.323411 15.426311 0.555803 0.056835
4958.496000 4958.500000 0.500000 3.322717 15.461463 0.557458 0.056811
4958.745000 4958.750000 0.500000 3.322228 15.466367 0.557907 0.057035
4958.994000 4959.000000 0.500000 3.322033 15.468874 0.558106 0.057018
4959.244000 4959.250000 0.500000 3.321550 15.473118 0.558524 0.056862
4959.497000 4959.500000 0.500000 3.320803 15.478232 0.559132 0.057058
4959.745000 4959.750000 0.500000 3.320431 15.481724 0.559466 0.057171
4959.998000 4960.000000 0.500000 3.319882 15.520841 0.561189 0.057218
4960.248000 4960.250000 0.500000 3.320075 15.525738 0.561260 0.057199
4960.497000 4960.500000 0.500000 3.319644 15.529822 0.561646 0.057189
4960.747000 4960.750000 0.500000 3.319441 15.535172 0.561955 0.057105
4960.995000 4961.000000 0.500000 3.319774 15.540003 0.561941 0.056930
4961.244000 4961.250000 0.500000 3.318656 15.544819 0.562740 0.057025
4961.498000 4961.500000 0.500000 3.318494 15.550626 0.563047 0.057010
4961.747000 4961.750000 0.500000 3.318209 15.553737 0.563322 0.057220
4961.998000 4962.000000 0.500000 3.318094 15.559456 0.563591 0.056959
4962.249000 4962.250000 0.500000 3.318081 15.563565 0.563751 0.056818
4962.496000 4962.500000 0.500000 3.317322 15.569476 0.564388 0.056770
4962.746000 4962.750000 0.500000 3.317034 15.575106 0.564757 0.056880
4962.996000 4963.000000 0.500000 3.317428 15.578528 0.564660 0.056264
4963.246000 4963.250000 0.500000 3.317458 15.584088 0.564842 0.055793
4963.497000 4963.500000 0.500000 3.317054 15.589665 0.565274 0.055764
4963.750000 4963.750000 0.500000 3.317459 15.595567 0.565259 0.055131
4963.998000 4964.000000 0.500000 3.317253 15.598775 0.565492 0.053826
4964.250000 4964.250000 0.500000 3.317246 15.604431 0.565696 0.052239
4964.498000 4964.500000 0.500000 3.317671 15.608766 0.565617 0.049455
4964.749000 4964.750000 0.500000 3.317988 15.613252 0.565600 0.045807
4964.998000 4965.000000 0.500000 3.318277 15.616142 0.565541 0.042382
4965.249000 4965.250000 0.500000 3.319102 15.622208 0.565295 0.039959
4965.499000 4965.500000 0.500000 3.319984 15.625660 0.564917 0.038902
4965.747000 4965.750000 0.500000 3.321740 15.630164 0.564093 0.039405
4966.000000 4966.000000 0.500000 3.324147 15.635026 0.562893 0.040334
4966.253000 4966.250000 0.500000 3.328723 15.637707 0.560412 0.041789
4966.500000 4966.500000 0.500000 3.335272 15.642551 0.556951 0.042778
4966.750000 4966.750000 0.500000 3.346299 15.645453 0.550962 0.043290
4966.998000 4967.000000 0.500000 3.360092 15.648860 0.543588 0.043007
4967.249000 4967.250000 0.500000 3.370284 15.651478 0.538111 0.042681
4967.498000 4967.500000 0.500000 3.369790 15.658056 0.538601 0.042733
4967.750000 4967.750000 0.500000 3.364075 15.662355 0.541825 0.042212
4968.003000 4968.000000 0.500000 3.361388 15.668940 0.543461 0.041905
4968.250000 4968.250000 0.500000 3.368423 15.675479 0.539868 0.040727
4968.501000 4968.500000 0.500000 3.387034 15.680411 0.530117 0.039496
4968.749000 4968.750000 0.500000 3.415035 15.683787 0.515651 0.037896
4968.995000 4969.000000 0.500000 3.449194 15.686732 0.498710 0.036066
4969.249000 4969.250000 0.500000 3.483183 15.685952 0.481696 0.034755
4969.500000 4969.500000 0.500000 3.512015 15.687786 0.468047 0.033286
4969.749000 4969.750000 0.500000 3.533965 15.689105 0.457947 0.032456
4970.001000 4970.000000 0.500000 3.545889 15.695033 0.452692 0.032121
4970.251000 4970.250000 0.500000 3.545592 15.704525 0.453099 0.031775
4970.502000 4970.500000 0.500000 3.533246 15.717173 0.459139 0.032150
4970.748000 4970.750000 0.500000 3.511114 15.728816 0.469639 0.032956
4970.998000 4971.000000 0.500000 3.486500 15.737721 0.481542 0.033197
4971.251000 4971.250000 0.500000 3.465547 15.746985 0.492188 0.033504
4971.501000 4971.500000 0.500000 3.453635 15.753166 0.498279 0.033540
4971.752000 4971.750000 0.500000 3.452641 15.759926 0.498937 0.033152
4972.001000 4972.000000 0.500000 3.465243 15.764915 0.492871 0.032020
4972.253000 4972.250000 0.500000 3.484921 15.769954 0.483434 0.031192
4972.501000 4972.500000 0.500000 3.504626 15.774866 0.474173 0.029700
4972.749000 4972.750000 0.500000 3.517262 15.778940 0.468383 0.028870
4973.002000 4973.000000 0.500000 3.520143 15.785186 0.467173 0.028182
4973.248000 4973.250000 0.500000 3.516591 15.786871 0.468866 0.027842
4973.502000 4973.500000 0.500000 3.506984 15.791795 0.473615 0.027497
4973.752000 4973.750000 0.500000 3.494886 15.794091 0.479452 0.027211
4974.001000 4974.000000 0.500000 3.481619 15.797665 0.485903 0.026875
4974.250000 4974.250000 0.500000 3.470621 15.799187 0.491298 0.026627
4974.500000 4974.500000 0.500000 3.462103 15.803024 0.495616 0.026239
4974.750000 4974.750000 0.500000 3.455741 15.804483 0.498842 0.026206
4974.997000 4975.000000 0.500000 3.455205 15.804847 0.499128 0.025649
4975.250000 4975.250000 0.500000 3.460168 15.806201 0.496696 0.025089
4975.502000 4975.500000 0.500000 3.469329 15.804337 0.492104 0.024726
4975.754000 4975.750000 0.500000 3.484677 15.805892 0.484585 0.023713
4976.001000 4976.000000 0.500000 3.506321 15.805585 0.474308 0.022819
4976.253000 4976.250000 0.500000 3.531843 15.806755 0.462346 0.021903
4976.499000 4976.500000 0.500000 3.562605 15.809315 0.448599 0.021126
4976.751000 4976.750000 0.500000 3.599279 15.809516 0.432312 0.020350
4976.998000 4977.000000 0.500000 3.641972 15.812700 0.414453 0.018882
4977.251000 4977.250000 0.500000 3.689255 15.815122 0.395155 0.018338
4977.502000 4977.500000 0.500000 3.741248 15.818665 0.375236 0.017131
4977.754000 4977.750000 0.500000 3.800945 15.820022 0.353427 0.016191
4978.000000 4978.000000 0.500000 3.866568 15.826203 0.331369 0.015135
4978.253000 4978.250000 0.500000 3.935216 15.827809 0.309304 0.014052
4978.500000 4978.500000 0.500000 4.000130 15.831590 0.290038 0.013225
4978.751000 4978.750000 0.500000 4.060849 15.833847 0.272933 0.012557
4979.000000 4979.000000 0.500000 4.107651 15.833941 0.260420 0.011863
4979.252000 4979.250000 0.500000 4.134673 15.834149 0.253473 0.011833
4979.502000 4979.500000 0.500000 4.145806 15.831978 0.250627 0.011613
4979.753000 4979.750000 0.500000 4.150135 15.830580 0.249522 0.011701
4980.000000 4980.000000 0.500000 4.156381 15.826586 0.247913 0.011514
4980.250000 4980.250000 0.500000 4.170645 15.825346 0.244403 0.011400
4980.498000 4980.500000 0.500000 4.193561 15.820331 0.238806 0.011192
4980.751000 4980.750000 0.500000 4.225951 15.819573 0.231158 0.010825
4981.001000 4981.000000 0.500000 4.265322 15.817806 0.222186 0.010212
4981.252000 4981.250000 0.500000 4.308673 15.817365 0.212744 0.010048
4981.503000 4981.500000 0.500000 4.353139 15.818217 0.203489 0.009364
4981.752000 4981.750000 0.500000 4.397836 15.821124 0.194663 0.009145
4981.999000 4982.000000 0.500000 4.442334 15.823561 0.186312 0.009027
4982.251000 4982.250000 0.500000 4.486712 15.827235 0.178189 0.008625
4982.500000 4982.500000 0.500000 4.531039 15.829996 0.170494 0.008210
4982.751000 4982.750000 0.500000 4.579140 15.832573 0.162468 0.008037
4983.004000 4983.000000 0.500000 4.638505 15.833777 0.153037 0.007454
4983.253000 4983.250000 0.500000 4.708540 15.831728 0.142684 0.007272
4983.505000 4983.500000 0.500000 4.789399 15.832936 0.131570 0.006767
4983.749000 4983.750000 0.500000 4.881101 15.830163 0.120178 0.006260
4984.001000 4984.000000 0.500000 4.979966 15.827592 0.108894 0.006007
4984.248000 4984.250000 0.500000 5.077793 15.827489 0.098736 0.005817
4984.502000 4984.500000 0.500000 5.164014 15.838218 0.090553 0.005529
4984.750000 4984.750000 0.500000 5.239773 15.864502 0.084109 0.005267
4985.001000 4985.000000 0.500000 5.293182 15.866038 0.079730 0.005086
4985.251000 4985.250000 0.500000 5.327062 15.867305 0.077089 0.005040
4985.503000 4985.500000 0.500000 5.334146 15.870084 0.076559 0.004965
4985.751000 4985.750000 0.500000 5.325741 15.870661 0.077201 0.005127
4985.999000 4986.000000 0.500000 5.305793 15.870817 0.078754 0.005022
4986.252000 4986.250000 0.500000 5.280244 15.868096 0.080785 0.005149
4986.502000 4986.500000 0.500000 5.259943 15.868452 0.082455 0.005170
4986.753000 4986.750000 0.500000 5.240644 15.865532 0.084042 0.005468
4987.001000 4987.000000 0.500000 5.232464 15.862642 0.084712 0.005174
4987.254000 4987.250000 0.500000 5.229353 15.858427 0.084950 0.005602
4987.501000 4987.500000 0.500000 5.237391 15.866300 0.084318 0.005133
4987.752000 4987.750000 0.500000 5.247414 15.864912 0.083469 0.005418
4988.000000 4988.000000 0.500000 5.259123 15.884933 0.082609 0.005633
4988.251000 4988.250000 0.500000 5.284148 15.901376 0.080640 0.005211
4988.499000 4988.500000 0.500000 5.302202 15.913030 0.079269 0.005466
4988.751000 4988.750000 0.500000 5.333377 15.925003 0.076876 0.005232
4989.002000 4989.000000 0.500000 5.361224 15.976513 0.075005 0.005289
4989.253000 4989.250000 0.500000 5.392133 15.989366 0.072786 0.004905
4989.501000 4989.500000 0.500000 5.416156 16.000721 0.071118 0.004975
4989.749000 4989.750000 0.500000 5.440784 16.013439 0.069452 0.004736
4990.002000 4990.000000 0.500000 5.464778 16.024988 0.067836 0.004660
4990.250000 4990.250000 0.500000 5.478643 16.042050 0.066983 0.004889
4990.503000 4990.500000 0.500000 5.486710 16.052990 0.066483 0.004597
4990.751000 4990.750000 0.500000 5.486422 16.061203 0.066537 0.004644
4991.004000 4991.000000 0.500000 5.476366 16.075424 0.067277 0.004658
4991.251000 4991.250000 0.500000 5.456875 16.084873 0.068627 0.004927
4991.500000 4991.500000 0.500000 5.437087 16.094313 0.070032 0.004905
4991.752000 4991.750000 0.500000 5.410279 16.104197 0.072000 0.004846
4991.998000 4992.000000 0.500000 5.385074 16.113184 0.073852 0.004836
4992.250000 4992.250000 0.500000 5.357341 16.121366 0.075985 0.005080
4992.500000 4992.500000 0.500000 5.329099 16.127928 0.078196 0.005252
4992.754000 4992.750000 0.500000 5.303708 16.132846 0.080253 0.005117
4993.000000 4993.000000 0.500000 5.275521 16.138715 0.082538 0.005283
4993.252000 4993.250000 0.500000 5.244258 16.144507 0.085203 0.005564
4993.500000 4993.500000 0.500000 5.214780 16.149095 0.087757 0.005491
4993.748000 4993.750000 0.500000 5.186235 16.154583 0.090326 0.005730
4994.002000 4994.000000 0.500000 5.153915 16.159089 0.093359 0.005621
4994.252000 4994.250000 0.500000 5.123206 16.163613 0.096293 0.005871
4994.503000 4994.500000 0.500000 5.091940 16.167367 0.099387 0.006024
4994.753000 4994.750000 0.500000 5.061582 16.174161 0.102482 0.006110
4995.002000 4995.000000 0.500000 5.035476 16.176070 0.105195 0.006185
4995.250000 4995.250000 0.500000 5.013072 16.179463 0.107595 0.006156
4995.501000 4995.500000 0.500000 4.997560 16.183335 0.109295 0.006372
4995.749000 4995.750000 0.500000 4.985851 16.186753 0.110612 0.006218
4996.001000 4996.000000 0.700000 4.982125 22.666719 0.155482 0.008876
4997.093000 4997.080000 0.710000 5.012999 23.002826 0.152986 0.008381
4998.185000 4998.180000 0.730000 5.061958 23.648525 0.149762 0.008685
4999.294000 4999.290000 0.740000 5.120391 23.987493 0.143310 0.008168
5000.438000 5000.430000 0.750000 5.187434 24.350036 0.136015 0.008041
5001.587000 5001.580000 0.760000 5.266894 24.725053 0.127565 0.007859
5002.766000 5002.760000 0.780000 5.321340 25.428749 0.124258 0.007655
5003.959000 5003.950000 0.790000 5.287048 25.812039 0.130545 0.008104
5005.167000 5005.160000 0.800000 5.194661 26.201140 0.145334 0.008573
5006.396000 5006.390000 0.810000 5.078716 26.600175 0.165649 0.009980
5007.649000 5007.640000 0.830000 4.973612 27.318531 0.189016 0.010777
5008.917000 5008.910000 0.840000 4.885182 27.706035 0.209420 0.011828
5010.204000 5010.200000 0.850000 4.783047 28.094527 0.235129 0.013055
5011.517000 5011.510000 0.860000 4.692840 28.484887 0.260943 0.014192
5012.838000 5012.830000 0.880000 4.642400 29.200002 0.281332 0.015279
5014.186000 5014.180000 0.890000 4.636112 29.580114 0.286786 0.015486
5015.547000 5015.540000 0.900000 4.657343 29.959232 0.284365 0.015645
5016.937000 5016.930000 0.910000 4.682666 30.348980 0.280855 0.015725
5018.339000 5018.330000 0.930000 4.698584 31.076015 0.283052 0.016079
5019.756000 5019.750000 0.940000 4.685849 31.470219 0.290317 0.016597
5021.195000 5021.190000 0.950000 4.649014 31.864225 0.304966 0.017182
5022.656000 5022.650000 0.960000 4.602199 32.262076 0.323574 0.017827
5024.137000 5024.130000 0.980000 4.559848 32.997210 0.345273 0.019119
5025.634000 5025.630000 0.990000 4.530990 33.395799 0.359663 0.019736
5027.146000 5027.140000 1.000000 4.518832 33.794745 0.368421 0.020259
5028.684000 5028.680000 1.010000 4.526310 34.196988 0.370034 0.020024
5030.247000 5030.240000 1.030000 4.543392 34.938379 0.371650 0.020216
5031.818000 5031.810000 1.040000 4.562804 35.342141 0.368700 0.019807
5033.407000 5033.400000 1.050000 4.578065 35.737228 0.367188 0.019285
5035.015000 5035.010000 1.060000 4.589103 36.136615 0.367221 0.019020
5036.655000 5036.650000 1.080000 4.606563 36.881927 0.368308 0.019051
5038.297000 5038.300000 1.090000 4.647087 37.291304 0.357632 0.018359
5039.968000 5039.970000 1.100000 4.708313 37.697862 0.340025 0.017796
5041.648000 5041.650000 1.110000 4.764787 38.108329 0.324859 0.017291
5043.357000 5043.360000 1.130000 4.796867 38.854714 0.320767 0.017012
5045.087000 5045.090000 1.140000 4.799711 39.262008 0.323211 0.017748
5046.829000 5046.830000 1.150000 4.788613 39.676512 0.330275 0.018359
5048.598000 5048.600000 1.160000 4.769308 40.091347 0.340223 0.019164
5050.378000 5050.380000 1.180000 4.747628 40.853193 0.354290 0.020049
5052.176000 5052.180000 1.190000 4.730911 41.264699 0.363888 0.021048
5053.999000 5054.000000 1.200000 4.721642 41.694824 0.371111 0.021629
5055.838000 5055.840000 1.210000 4.712218 42.118967 0.378438 0.022089
5057.699000 5057.700000 1.230000 4.700280 42.899454 0.390075 0.022916
5059.579000 5059.580000 1.240000 4.693926 43.337333 0.396567 0.023232
5061.478000 5061.480000 1.250000 4.692032 43.771075 0.401295 0.023494
5063.398000 5063.400000 1.260000 4.691658 44.202125 0.405398 0.023960
5065.326000 5065.330000 1.280000 4.693040 45.077962 0.412859 0.024134
5067.291000 5067.290000 1.290000 4.693840 45.525403 0.416634 0.024949
5069.259000 5069.260000 1.300000 4.684748 45.966406 0.424518 0.025415
5071.260000 5071.260000 1.310000 4.658297 46.407559 0.440079 0.026365
5073.271000 5073.270000 1.330000 4.625289 47.283689 0.463431 0.027566
5075.300000 5075.300000 1.340000 4.599728 47.773233 0.480341 0.028418
5077.352000 5077.350000 1.350000 4.595459 48.259804 0.487298 0.028513
5079.419000 5079.420000 1.360000 4.608814 48.790483 0.486126 0.028043
5081.509000 5081.510000 1.380000 4.623459 49.614010 0.487149 0.027859
5083.612000 5083.610000 1.390000 4.625877 50.075463 0.490505 0.027359
5085.739000 5085.740000 1.400000 4.610977 50.536769 0.502445 0.028081
5087.890000 5087.890000 1.410000 4.585721 50.999812 0.520023 0.028825
5090.049000 5090.050000 1.430000 4.559186 51.831447 0.542709 0.029645
5092.229000 5092.230000 1.440000 4.534254 52.304670 0.561482 0.030352
5094.439000 5094.440000 1.450000 4.506817 52.783586 0.582378 0.031537
5096.657000 5096.660000 1.460000 4.474624 53.244551 0.606673 0.033407
5098.896000 5098.900000 1.480000 4.445426 54.074706 0.634376 0.035638
5101.158000 5101.160000 1.490000 4.423109 54.542013 0.654306 0.037500
5103.439000 5103.440000 1.500000 4.412587 55.022811 0.667076 0.039111
5105.739000 5105.740000 1.510000 4.410692 55.490323 0.674026 0.039844
5108.050000 5108.050000 1.530000 4.408325 56.328287 0.685828 0.040542
5110.394000 5110.390000 1.540000 4.402108 56.810907 0.696022 0.041455
5112.741000 5112.740000 1.550000 4.395900 57.295085 0.706321 0.042043
5115.122000 5115.120000 1.560000 4.393624 57.778121 0.713895 0.042240
5117.511000 5117.510000 1.580000 4.402668 58.649911 0.718149 0.042974
5119.921000 5119.920000 1.590000 4.418713 59.149198 0.712733 0.043103
5122.350000 5122.350000 1.600000 4.433221 59.654034 0.708468 0.042883
5124.801000 5124.800000 1.610000 4.441631 60.169833 0.708604 0.043125
5127.274000 5127.270000 1.630000 4.442998 61.064833 0.718162 0.044034
5129.761000 5129.760000 1.640000 4.440147 61.598293 0.726505 0.044966
5132.269000 5132.270000 1.650000 4.431208 62.127118 0.739315 0.045360
5134.788000 5134.790000 1.660000 4.419159 62.654108 0.754618 0.046314
5137.340000 5137.340000 1.680000 4.407579 63.572739 0.774608 0.047178
5139.901000 5139.900000 1.690000 4.401599 64.114054 0.785893 0.048008
5142.491000 5142.490000 1.700000 4.401649 64.651191 0.792437 0.047767
5145.093000 5145.090000 1.710000 4.401911 65.190354 0.798838 0.047984
5147.709000 5147.710000 1.730000 4.396171 66.113176 0.814804 0.048632
5150.352000 5150.350000 1.740000 4.383869 66.668296 0.831819 0.049569
5153.011000 5153.010000 1.750000 4.366677 67.221714 0.853275 0.051101
5155.692000 5155.690000 1.760000 4.349627 67.782714 0.875192 0.052676
5158.389000 5158.390000 1.780000 4.333679 68.722043 0.901566 0.054785
5161.110000 5161.110000 1.790000 4.318205 69.270321 0.922936 0.056591
5163.840000 5163.840000 1.800000 4.303150 69.838588 0.944629 0.058455
5166.600000 5166.600000 1.810000 4.291040 70.406116 0.963908 0.059722
5169.369000 5169.370000 1.830000 4.283937 71.354501 0.983852 0.061471
5172.173000 5172.170000 1.840000 4.278870 71.924656 0.996758 0.062769
5174.982000 5174.980000 1.850000 4.273188 72.473263 1.010087 0.064432
5177.808000 5177.810000 1.860000 4.265034 73.033381 1.026218 0.065384
5180.661000 5180.660000 1.880000 4.256081 73.992512 1.049050 0.067722
5183.531000 5183.530000 1.890000 4.247663 74.591287 1.066479 0.068968
5186.418000 5186.420000 1.900000 4.236915 75.168285 1.086337 0.070752
5189.319000 5189.320000 1.910000 4.224206 75.752620 1.108780 0.071722
5192.251000 5192.250000 1.930000 4.209647 76.718550 1.139399 0.074097
5195.199000 5195.200000 1.940000 4.196697 77.287015 1.162792 0.075836
5198.160000 5198.160000 1.950000 4.186393 77.812854 1.182830 0.077062
5201.139000 5201.140000 1.960000 4.178196 78.492617 1.202992 0.078282
5204.150000 5204.150000 1.980000 4.170395 79.611210 1.229684 0.080104
5207.169000 5207.170000 1.990000 4.161586 80.258679 1.250654 0.081210
5210.209000 5210.210000 2.000000 4.151168 80.878691 1.273523 0.082690
5213.271000 5213.270000 2.010000 4.140208 81.531531 1.297942 0.084651
5216.349000 5216.350000 2.030000 4.130654 82.662052 1.328576 0.086564
5219.451000 5219.450000 2.040000 4.121813 83.269127 1.350218 0.088442
5222.560000 5222.560000 2.050000 4.115942 83.887441 1.368253 0.090133
5225.698000 5225.700000 2.060000 4.112389 84.484647 1.382895 0.091708
5228.851000 5228.850000 2.080000 4.109201 85.491428 1.403847 0.093160
5232.029000 5232.030000 2.090000 4.103909 86.100803 1.421354 0.095032
5235.221000 5235.220000 2.100000 4.097308 86.736146 1.441324 0.097120
5238.430000 5238.430000 2.110000 4.090100 87.381799 1.462566 0.099335
5241.660000 5241.660000 2.130000 4.080966 88.413660 1.493407 0.101597
5244.918000 5244.920000 2.140000 4.071464 89.009555 1.517826 0.103754
5248.183000 5248.180000 2.150000 4.062162 89.147631 1.534392 0.106114
5251.467000 5251.470000 2.160000 4.054321 89.923258 1.559916 0.108612
5254.781000 5254.780000 2.180000 4.045269 91.368867 1.599413 0.111716
5258.108000 5258.110000 2.190000 4.034628 92.177005 1.630814 0.114681
5261.453000 5261.450000 2.200000 4.024481 92.861880 1.659702 0.117417
5264.818000 5264.820000 2.210000 4.013854 93.616760 1.691055 0.119479
5268.201000 5268.200000 2.230000 4.003482 94.806259 1.730405 0.123044
5271.599000 5271.600000 2.240000 3.993549 95.537460 1.761150 0.125292
5275.033000 5275.030000 2.250000 3.983361 96.394541 1.795155 0.127804
5278.470000 5278.470000 2.260000 3.975172 96.026476 1.803006 0.128967
5281.931000 5281.930000 2.280000 3.967585 98.157663 1.857050 0.132586
5285.400000 5285.400000 2.290000 3.959448 99.017238 1.888624 0.135354
5288.900000 5288.900000 2.300000 3.950578 99.807302 1.920645 0.138290
5292.419000 5292.420000 2.310000 3.942173 100.568108 1.951621 0.141022
5295.958000 5295.960000 2.330000 3.934800 101.785910 1.989868 0.144556
5299.510000 5299.510000 2.340000 3.927961 102.426331 2.016130 0.147694
5303.087000 5303.090000 2.350000 3.920278 103.177989 2.046591 0.150405
5306.682000 5306.680000 2.360000 3.910421 104.020497 2.083750 0.153844
5310.291000 5310.290000 2.380000 3.899573 105.257162 2.131518 0.157293
5313.920000 5313.920000 2.390000 3.887633 106.043069 2.173222 0.161846
5317.569000 5317.570000 2.400000 3.876073 106.780939 2.213785 0.165416
5321.239000 5321.240000 2.410000 3.865036 107.365981 2.250628 0.168874
5324.932000 5324.930000 2.430000 3.852850 108.428373 2.300764 0.173363
5328.641000 5328.640000 2.440000 3.840259 109.219359 2.346906 0.178144
5332.360000 5332.360000 2.450000 3.828527 109.985254 2.391265 0.182368
5336.111000 5336.110000 2.460000 3.817275 110.743305 2.434983 0.186350
5339.870000 5339.870000 2.480000 3.807172 111.915047 2.485736 0.191725
5343.660000 5343.660000 2.490000 3.797228 112.608720 2.526133 0.196135
5347.464000 5347.460000 2.500000 3.788430 113.139356 2.560471 0.199734
5351.279000 5351.280000 2.510000 3.780353 113.811997 2.596580 0.203660
5355.119000 5355.120000 2.530000 3.772431 114.900939 2.642269 0.208006
5358.981000 5358.980000 2.540000 3.765313 116.357304 2.694881 0.212871
5362.859000 5362.860000 2.550000 3.759330 117.073538 2.727738 0.216286
5366.759000 5366.760000 2.560000 3.752721 117.587961 2.757883 0.219363
5370.682000 5370.680000 2.580000 3.744904 118.500243 2.801099 0.223758
5374.610000 5374.610000 2.590000 3.736277 118.955382 2.836223 0.227363
5378.568000 5378.570000 2.600000 3.727471 119.445158 2.873076 0.231175
5382.542000 5382.540000 2.610000 3.718084 119.922931 2.911793 0.235760
5386.540000 5386.540000 2.630000 3.709020 120.900276 2.962239 0.240715
5390.549000 5390.550000 2.640000 3.699160 121.261057 3.000526 0.245153
5394.582000 5394.580000 2.650000 3.688967 121.779598 3.044225 0.250435
5398.632000 5398.630000 2.660000 3.678821 121.888166 3.078014 0.254758
5402.699000 5402.700000 2.680000 3.667952 122.822946 3.135504 0.260345
5406.789000 5406.790000 2.690000 3.657124 122.937274 3.172599 0.264941
5410.899000 5410.900000 2.700000 3.646563 123.112901 3.210855 0.269670
5415.018000 5415.020000 2.710000 3.635620 123.463436 3.255424 0.274904
5419.170000 5419.170000 2.730000 3.624584 123.744660 3.299061 0.280643
5423.331000 5423.330000 2.740000 3.613952 124.239505 3.347658 0.285904
5427.523000 5427.520000 2.750000 3.603819 124.501095 3.388873 0.290937
5431.720000 5431.720000 2.760000 3.593774 124.687017 3.428184 0.295803
5435.940000 5435.940000 2.780000 3.583917 125.381441 3.481438 0.302473
5440.180000 5440.180000 2.790000 3.575119 125.599041 3.518290 0.307409
5444.439000 5444.440000 2.800000 3.566676 125.902971 3.556699 0.312099
5448.719000 5448.720000 2.810000 3.558390 126.222951 3.595408 0.317486
5453.021000 5453.020000 2.830000 3.549330 126.988718 3.650156 0.323913
5457.342000 5457.340000 2.840000 3.540564 127.377627 3.693568 0.329354
5461.669000 5461.670000 2.850000 3.531983 127.753436 3.736377 0.334612
5466.026000 5466.030000 2.860000 3.522277 128.176630 3.785314 0.340826
5470.401000 5470.400000 2.880000 3.512008 129.099584 3.851952 0.348699
5474.800000 5474.800000 2.890000 3.501701 129.542964 3.905199 0.354970
5479.209000 5479.210000 2.900000 3.490907 130.402952 3.973790 0.362767
5483.640000 5483.640000 2.910000 3.480273 131.066654 4.036724 0.370751
5488.090000 5488.090000 2.930000 3.470042 132.387527 4.119340 0.380067
5492.560000 5492.560000 2.940000 3.460015 132.961302 4.178874 0.387562
5497.054000 5497.050000 2.950000 3.449282 133.567439 4.243257 0.395604
5501.559000 5501.560000 2.960000 3.439231 134.262739 4.308397 0.403699
5506.079000 5506.080000 2.980000 3.429561 135.373154 4.386253 0.413079
5510.630000 5510.630000 2.990000 3.419611 136.380184 4.463070 0.422653
5515.190000 5515.190000 3.000000 3.410400 137.214459 4.531917 0.431630
5519.781000 5519.780000 3.010000 3.400949 137.967182 4.600053 0.440653
5524.376000 5524.380000 3.030000 3.392289 139.248449 4.683131 0.450322
5528.998000 5529.000000 3.040000 3.383646 140.114561 4.753191 0.459619
5533.640000 5533.640000 3.050000 3.374233 140.899831 4.825028 0.469446
5538.302000 5538.300000 3.060000 3.365270 141.745680 4.897703 0.478328
5542.981000 5542.980000 3.080000 3.356073 143.080487 4.989482 0.490740
5547.680000 5547.680000 3.090000 3.346976 143.928491 5.064923 0.500665
5552.398000 5552.400000 3.100000 3.337792 144.778369 5.141834 0.510922
5557.128000 5557.130000 3.110000 3.328628 145.657210 5.220677 0.520999
5561.890000 5561.890000 3.130000 3.318901 147.017573 5.320950 0.533759
5566.661000 5566.660000 3.140000 3.309248 147.883543 5.404208 0.545421
5571.461000 5571.460000 3.150000 3.299347 148.791159 5.491477 0.557017
5576.270000 5576.270000 3.160000 3.289555 149.624467 5.576565 0.568426
5581.100000 5581.100000 3.180000 3.279655 150.995540 5.683664 0.582759
5585.949000 5585.950000 3.190000 3.269694 151.939101 5.776432 0.595197
5590.818000 5590.820000 3.200000 3.259660 152.821902 5.868580 0.608006
5595.708000 5595.710000 3.210000 3.249717 153.610174 5.957784 0.620132
5600.623000 5600.620000 3.230000 3.240164 155.001878 6.069490 0.635206
5605.543000 5605.540000 3.240000 3.230764 155.833498 6.159691 0.648074
5610.492000 5610.490000 3.250000 3.221279 156.650917 6.251000 0.660771
5615.452000 5615.450000 3.260000 3.211749 157.572815 6.348003 0.674845
5620.438000 5620.440000 3.280000 3.202061 158.830971 6.460960 0.690676
5625.438000 5625.440000 3.290000 3.192120 158.960781 6.530819 0.702210
5630.458000 5630.460000 3.300000 3.182421 159.751341 6.627295 0.716575
5635.499000 5635.500000 3.310000 3.172721 160.018621 6.703104 0.729398
5640.558000 5640.560000 3.330000 3.162496 161.841497 6.849123 0.748960
5645.640000 5645.640000 3.340000 3.152167 162.686820 6.956380 0.765339
5650.740000 5650.740000 3.350000 3.142177 163.401861 7.057116 0.780680
5655.860000 5655.860000 3.360000 3.132520 164.225079 7.161471 0.796168
5660.990000 5660.990000 3.380000 3.122519 165.674608 7.297303 0.815838
5666.152000 5666.150000 3.390000 3.112841 166.517124 7.405769 0.832602
5671.321000 5671.320000 3.400000 3.103248 167.831950 7.536161 0.851851
5676.520000 5676.520000 3.410000 3.093530 169.074895 7.666135 0.871562
5681.731000 5681.730000 3.430000 3.083843 170.519134 7.806874 0.892268
5686.959000 5686.960000 3.440000 3.074106 171.420624 7.924932 0.910800
5692.210000 5692.210000 3.450000 3.064392 172.117784 8.034837 0.928440
5697.480000 5697.480000 3.460000 3.054837 172.963564 8.151846 0.947364
5702.767000 5702.770000 3.480000 3.044945 174.206537 8.292027 0.968897
5708.080000 5708.080000 3.490000 3.035329 174.898893 8.405433 0.987291
