# XDI/1.0 BlueSky/1.5.0
# Beamline.name: 6BM
# Beamline.xray_source: NSLS-II three-pole wiggler
# Beamline.collimation: paraboloid mirror, 5 nm Rh on 30 nm Pt
# Beamline.focusing: not in use
# Beamline.harmonic_rejection: flat mirror, Si stripe, pitch = 7.0 mrad relative to beam
# Detector.i0: 10 cm N2
# Detector.i1: 25 cm N2
# Detector.i2: 25 cm N2
# Element.symbol: Ti
# Element.edge: K
# Facility.name: NSLS-II
# Facility.energy: 3.0
# Facility.current: 220.5
# Facility.mode: top-off
# Facility.gup: 301027
# Facility.saf: 304156
# Mono.name: Si(111)
# Mono.d_spacing: 3.1352584
# Mono.encoder_resolution: 0.0000050 deg/ct
# Mono.angle_offset: 16.0571090 deg
# Mono.scan_mode: pseudo channel cut
# Mono.scan_type: step
# Mono.direction: forward in energy
# Sample.name: SrTiO3 tausonite
# Sample.prep: Powder in polyethylene glycol pellet
# Sample.x_position: -97.532 mm
# Sample.y_position: 117.543 mm
# Sample.wheel_position: -465.000 mm
# Scan.experimenters: Bruce Ravel, Martin Stennett
# Scan.edge_energy: 4966.0
# Scan.start_time: 2019-05-29T21:11:43
# Scan.end_time: 2019-05-29T21:54:34
# Scan.transient_id: 9761
# Scan.uid: 7ea20f27-edf3-4f26-8b51-f2fdb84b8ffa
# Scan.plot_hint: ln(I0/It)  --  ln($5/$6)
# Scan.sequence: merge of 3 scans
# Column.1: energy eV
# Column.2: requested_energy eV
# Column.3: measurement_time seconds
# Column.4: mutrans
# Column.5: i0
# Column.6: itrans
# Column.7: irefer
# /////
#  sample disk prepared by Martin
# -----
# energy   requested_energy   measurement_time   mutrans   i0   itrans   irefer
4765.982000 4766.000000 0.500000 3.993458 10.972851 0.202322 0.017366
4776.007000 4776.000000 0.500000 3.992879 11.162597 0.205911 0.017388
4786.008000 4786.000000 0.500000 3.963991 11.405338 0.216554 0.018636
4796.007000 4796.000000 0.500000 3.936748 11.651925 0.227347 0.019578
4806.008000 4806.000000 0.500000 3.907835 11.900852 0.239016 0.021119
4816.006000 4816.000000 0.500000 3.879197 12.144734 0.251001 0.022190
4826.007000 4826.000000 0.500000 3.852694 12.386695 0.262878 0.023567
4836.009000 4836.000000 0.500000 3.824196 12.630904 0.275811 0.025043
4846.003000 4846.000000 0.500000 3.797343 12.904407 0.289443 0.026263
4856.011000 4856.000000 0.500000 3.770220 13.145513 0.302964 0.027981
4866.009000 4866.000000 0.500000 3.742069 13.385393 0.317301 0.029630
4876.010000 4876.000000 0.500000 3.715897 13.620278 0.331434 0.031169
4886.004000 4886.000000 0.500000 3.689762 13.851636 0.345985 0.032818
4896.006000 4896.000000 0.500000 3.663281 14.080250 0.361135 0.034682
4906.003000 4906.000000 0.500000 3.637238 14.313729 0.376809 0.036681
4916.004000 4916.000000 0.500000 3.611115 14.545102 0.393034 0.038806
4926.001000 4926.000000 0.500000 3.585673 14.774240 0.409511 0.040794
4936.002000 4936.000000 0.500000 3.560877 14.995625 0.426084 0.042941
4938.003000 4938.000000 0.500000 3.555557 15.036690 0.429533 0.043650
4939.999000 4940.000000 0.500000 3.550442 15.078305 0.432929 0.043856
4941.999000 4942.000000 0.500000 3.546182 15.116190 0.435871 0.044329
4943.999000 4944.000000 0.500000 3.540004 15.160271 0.439848 0.044903
4946.008000 4946.000000 0.500000 3.535689 15.199404 0.442901 0.044968
4948.007000 4948.000000 0.500000 3.530652 15.233221 0.446120 0.045474
4950.006000 4950.000000 0.500000 3.525536 15.273810 0.449600 0.045940
4952.006000 4952.000000 0.500000 3.521139 15.308734 0.452615 0.046294
4954.005000 4954.000000 0.500000 3.516515 15.343154 0.455735 0.046489
4956.000000 4956.000000 0.500000 3.511777 15.378203 0.458941 0.047063
4956.247000 4956.250000 0.500000 3.511132 15.381164 0.459329 0.047169
4956.495000 4956.500000 0.500000 3.510794 15.385451 0.459612 0.047079
4956.744000 4956.750000 0.500000 3.510011 15.388451 0.460061 0.047167
4956.994000 4957.000000 0.500000 3.509257 15.393210 0.460552 0.047116
4957.248000 4957.250000 0.500000 3.508361 15.397246 0.461089 0.047491
4957.496000 4957.500000 0.500000 3.507813 15.401536 0.461467 0.047420
4957.745000 4957.750000 0.500000 3.507519 15.406195 0.461743 0.047486
4957.995000 4958.000000 0.500000 3.506357 15.409715 0.462384 0.047334
4958.245000 4958.250000 0.500000 3.506035 15.411907 0.462598 0.047447
4958.495000 4958.500000 0.500000 3.505580 15.417768 0.462986 0.047272
4958.745000 4958.750000 0.500000 3.505133 15.422450 0.463333 0.047378
4958.995000 4959.000000 0.500000 3.504109 15.426001 0.463914 0.047636
4959.246000 4959.250000 0.500000 3.503453 15.428917 0.464307 0.047682
4959.498000 4959.500000 0.500000 3.503168 15.436172 0.464661 0.047602
4959.748000 4959.750000 0.500000 3.502433 15.439260 0.465094 0.047804
4959.996000 4960.000000 0.500000 3.502224 15.443903 0.465329 0.047678
4960.246000 4960.250000 0.500000 3.501466 15.449952 0.465864 0.047869
4960.495000 4960.500000 0.500000 3.501085 15.453963 0.466161 0.047392
4960.745000 4960.750000 0.500000 3.500283 15.457822 0.466655 0.047735
4960.996000 4961.000000 0.500000 3.499916 15.463373 0.466993 0.047901
4961.247000 4961.250000 0.500000 3.499651 15.465238 0.467173 0.047790
4961.497000 4961.500000 0.500000 3.499228 15.470969 0.467545 0.047639
4961.749000 4961.750000 0.500000 3.498001 15.477763 0.468327 0.047719
4961.999000 4962.000000 0.500000 3.497378 15.482356 0.468755 0.047717
4962.248000 4962.250000 0.500000 3.497391 15.487775 0.468912 0.047404
4962.496000 4962.500000 0.500000 3.497089 15.492057 0.469184 0.047391
4962.746000 4962.750000 0.500000 3.496221 15.496287 0.469718 0.047367
4962.998000 4963.000000 0.500000 3.496044 15.500414 0.469929 0.047019
4963.249000 4963.250000 0.500000 3.495521 15.504764 0.470308 0.046752
4963.498000 4963.500000 0.500000 3.494584 15.507835 0.470838 0.046437
4963.749000 4963.750000 0.500000 3.494519 15.513714 0.471050 0.045708
4963.998000 4964.000000 0.500000 3.493926 15.519999 0.471519 0.044710
4964.248000 4964.250000 0.500000 3.493852 15.525315 0.471715 0.042858
4964.497000 4964.500000 0.500000 3.492903 15.529004 0.472274 0.040716
4964.747000 4964.750000 0.500000 3.492665 15.533159 0.472515 0.037341
4964.999000 4965.000000 0.500000 3.492919 15.533597 0.472409 0.034823
4965.248000 4965.250000 0.500000 3.492086 15.539137 0.472969 0.033169
4965.498000 4965.500000 0.500000 3.492358 15.543074 0.472960 0.032756
4965.750000 4965.750000 0.500000 3.491872 15.548608 0.473360 0.033358
4965.997000 4966.000000 0.500000 3.492066 15.553133 0.473406 0.034773
4966.249000 4966.250000 0.500000 3.492919 15.555433 0.473071 0.035932
4966.496000 4966.500000 0.500000 3.494157 15.558439 0.472590 0.037021
4966.749000 4966.750000 0.500000 3.497288 15.560012 0.471144 0.037337
4966.999000 4967.000000 0.500000 3.499886 15.599236 0.471112 0.037628
4967.250000 4967.250000 0.500000 3.501099 15.602689 0.470649 0.037568
4967.501000 4967.500000 0.500000 3.499329 15.607907 0.471641 0.037345
4967.749000 4967.750000 0.500000 3.498206 15.612681 0.472305 0.036862
4968.001000 4968.000000 0.500000 3.497923 15.618876 0.472628 0.036441
4968.249000 4968.250000 0.500000 3.500472 15.622248 0.471535 0.035645
4968.497000 4968.500000 0.500000 3.506220 15.623020 0.468873 0.034673
4968.750000 4968.750000 0.500000 3.513473 15.627527 0.465581 0.034097
4969.000000 4969.000000 0.500000 3.522263 15.629093 0.461555 0.033642
4969.251000 4969.250000 0.500000 3.527300 15.629911 0.459273 0.032694
4969.501000 4969.500000 0.500000 3.526533 15.632866 0.459715 0.032217
4969.750000 4969.750000 0.500000 3.521426 15.634433 0.462112 0.032427
4970.001000 4970.000000 0.500000 3.516213 15.640725 0.464712 0.032334
4970.248000 4970.250000 0.500000 3.512675 15.650029 0.466616 0.032505
4970.500000 4970.500000 0.500000 3.510300 15.663569 0.468145 0.032502
4970.749000 4970.750000 0.500000 3.509253 15.671841 0.468888 0.032438
4970.999000 4971.000000 0.500000 3.509213 15.679862 0.469147 0.032306
4971.252000 4971.250000 0.500000 3.511395 15.689001 0.468393 0.031664
4971.502000 4971.500000 0.500000 3.516172 15.696081 0.466377 0.031369
4971.752000 4971.750000 0.500000 3.522506 15.699926 0.463519 0.030496
4971.999000 4972.000000 0.500000 3.528770 15.703257 0.460764 0.029785
4972.251000 4972.250000 0.500000 3.534602 15.710427 0.458291 0.029044
4972.499000 4972.500000 0.500000 3.537653 15.713094 0.456974 0.028427
4972.750000 4972.750000 0.500000 3.539914 15.713514 0.455938 0.027809
4973.000000 4973.000000 0.500000 3.540722 15.716274 0.455653 0.027239
4973.253000 4973.250000 0.500000 3.541567 15.720992 0.455404 0.026435
4973.504000 4973.500000 0.500000 3.541150 15.738514 0.456104 0.026136
4973.751000 4973.750000 0.500000 3.540913 15.763812 0.456944 0.025861
4973.998000 4974.000000 0.500000 3.540648 15.765998 0.457125 0.025198
4974.249000 4974.250000 0.500000 3.541449 15.767095 0.456797 0.024783
4974.500000 4974.500000 0.500000 3.542132 15.771664 0.456614 0.024304
4974.750000 4974.750000 0.500000 3.541842 15.771373 0.456738 0.023814
4975.002000 4975.000000 0.500000 3.540321 15.772457 0.457472 0.023698
4975.252000 4975.250000 0.500000 3.538704 15.772928 0.458221 0.023102
4975.504000 4975.500000 0.500000 3.535376 15.772329 0.459744 0.022656
4975.751000 4975.750000 0.500000 3.533424 15.770588 0.460573 0.022179
4975.999000 4976.000000 0.500000 3.531447 15.769903 0.461462 0.022036
4976.250000 4976.250000 0.500000 3.530174 15.768310 0.462006 0.021607
4976.502000 4976.500000 0.500000 3.529823 15.769194 0.462196 0.021441
4976.749000 4976.750000 0.500000 3.530959 15.770677 0.461713 0.021352
4977.001000 4977.000000 0.500000 3.533356 15.771245 0.460625 0.020663
4977.251000 4977.250000 0.500000 3.533804 15.773307 0.460484 0.020574
4977.501000 4977.500000 0.500000 3.536032 15.776087 0.459537 0.020247
4977.749000 4977.750000 0.500000 3.537892 15.776843 0.458714 0.019991
4978.000000 4978.000000 0.500000 3.541117 15.780078 0.457328 0.019945
4978.252000 4978.250000 0.500000 3.545557 15.782194 0.455359 0.019693
4978.501000 4978.500000 0.500000 3.550598 15.785458 0.453147 0.019499
4978.753000 4978.750000 0.500000 3.557884 15.821212 0.450870 0.018969
4979.002000 4979.000000 0.500000 3.566513 15.818310 0.446921 0.019023
4979.255000 4979.250000 0.500000 3.577514 15.816841 0.441964 0.018831
4979.501000 4979.500000 0.500000 3.590844 15.816133 0.436137 0.018458
4979.750000 4979.750000 0.500000 3.607113 15.813165 0.429051 0.018387
4979.998000 4980.000000 0.500000 3.627837 15.808861 0.420181 0.017789
4980.251000 4980.250000 0.500000 3.650177 15.806160 0.410734 0.017472
4980.503000 4980.500000 0.500000 3.675111 15.803917 0.400486 0.017113
4980.751000 4980.750000 0.500000 3.703296 15.801557 0.389353 0.016406
4981.000000 4981.000000 0.500000 3.735197 15.800198 0.377177 0.015937
4981.250000 4981.250000 0.500000 3.768972 15.799083 0.364693 0.015274
4981.501000 4981.500000 0.500000 3.805272 15.801405 0.351666 0.015066
4981.750000 4981.750000 0.500000 3.845428 15.803350 0.337907 0.014390
4982.000000 4982.000000 0.500000 3.884708 15.805134 0.324909 0.014229
4982.251000 4982.250000 0.500000 3.918896 15.809917 0.314015 0.013222
4982.505000 4982.500000 0.500000 3.942155 15.810389 0.306769 0.013061
4982.751000 4982.750000 0.500000 3.955248 15.812890 0.302879 0.012839
4983.002000 4983.000000 0.500000 3.957003 15.812763 0.302347 0.013012
4983.251000 4983.250000 0.500000 3.953937 15.809589 0.303212 0.012920
4983.501000 4983.500000 0.500000 3.947303 15.809089 0.305219 0.012943
4983.748000 4983.750000 0.500000 3.941331 15.808388 0.307019 0.013097
4984.001000 4984.000000 0.500000 3.936904 15.804795 0.308327 0.013262
4984.251000 4984.250000 0.500000 3.935624 15.803943 0.308705 0.013204
4984.503000 4984.500000 0.500000 3.935724 15.804261 0.308680 0.013347
4984.750000 4984.750000 0.500000 3.937931 15.807804 0.308073 0.013173
4985.001000 4985.000000 0.500000 3.939011 15.806763 0.307720 0.013423
4985.250000 4985.250000 0.500000 3.939984 15.808644 0.307459 0.013263
4985.500000 4985.500000 0.500000 3.938754 15.809283 0.307843 0.013404
4985.752000 4985.750000 0.500000 3.935064 15.810942 0.309015 0.013446
4986.001000 4986.000000 0.500000 3.929459 15.810186 0.310753 0.013680
4986.255000 4986.250000 0.500000 3.922483 15.809077 0.312922 0.014288
4986.501000 4986.500000 0.500000 3.917528 15.806417 0.314388 0.014112
4986.754000 4986.750000 0.500000 3.914132 15.804511 0.315423 0.013991
4986.999000 4987.000000 0.500000 3.912320 15.799379 0.315892 0.014080
4987.250000 4987.250000 0.500000 3.912886 15.798833 0.315705 0.014095
4987.500000 4987.500000 0.500000 3.915123 15.798505 0.314996 0.014003
4987.752000 4987.750000 0.500000 3.917641 15.798745 0.314201 0.013970
4988.004000 4988.000000 0.500000 3.921658 15.801897 0.312996 0.014218
4988.252000 4988.250000 0.500000 3.925311 15.808287 0.311992 0.013935
4988.501000 4988.500000 0.500000 3.928355 15.817271 0.311226 0.013813
4988.751000 4988.750000 0.500000 3.929419 15.828831 0.311118 0.013752
4989.001000 4989.000000 0.500000 3.929648 15.840922 0.311283 0.014060
4989.249000 4989.250000 0.500000 3.930681 15.852427 0.311190 0.013904
4989.502000 4989.500000 0.500000 3.930376 15.867292 0.311575 0.013833
4989.751000 4989.750000 0.500000 3.934783 15.877531 0.310400 0.013720
4990.003000 4990.000000 0.500000 3.937289 15.889948 0.309866 0.013773
4990.252000 4990.250000 0.500000 3.940819 15.901956 0.309012 0.014140
4990.504000 4990.500000 0.500000 3.945973 15.915467 0.307672 0.013970
4990.752000 4990.750000 0.500000 3.951100 15.926983 0.306333 0.013803
4990.999000 4991.000000 0.500000 3.954432 15.937848 0.305530 0.013818
4991.250000 4991.250000 0.500000 3.956712 15.948286 0.305032 0.013913
4991.500000 4991.500000 0.500000 3.957215 15.957674 0.305051 0.013770
4991.754000 4991.750000 0.500000 3.957387 15.965249 0.305145 0.013964
4992.001000 4992.000000 0.500000 3.956573 15.972583 0.305534 0.013674
4992.254000 4992.250000 0.500000 3.955570 15.981052 0.306001 0.014067
4992.502000 4992.500000 0.500000 3.956154 15.987401 0.305944 0.014021
4992.750000 4992.750000 0.500000 3.956967 15.993184 0.305808 0.013997
4993.000000 4993.000000 0.500000 3.959271 15.997933 0.305199 0.013830
4993.251000 4993.250000 0.500000 3.961356 16.001115 0.304618 0.014010
4993.504000 4993.500000 0.500000 3.963122 16.007409 0.304199 0.013992
4993.753000 4993.750000 0.500000 3.963178 16.011509 0.304263 0.013929
4994.003000 4994.000000 0.500000 3.962684 16.015587 0.304491 0.014112
4994.250000 4994.250000 0.500000 3.961339 16.019445 0.304969 0.013720
4994.503000 4994.500000 0.500000 3.958810 16.026128 0.305874 0.014018
4994.749000 4994.750000 0.500000 3.955687 16.029137 0.306876 0.013581
4995.000000 4995.000000 0.500000 3.951228 16.032575 0.308321 0.013905
4995.250000 4995.250000 0.500000 3.947785 16.035064 0.309433 0.013745
4995.500000 4995.500000 0.500000 3.944782 16.035299 0.310370 0.013775
4995.754000 4995.750000 0.500000 3.941455 16.089189 0.312456 0.013803
4996.001000 4996.000000 0.700000 3.939666 22.449941 0.436757 0.019390
4997.090000 4997.080000 0.710000 3.939812 22.786834 0.443247 0.019098
4998.187000 4998.180000 0.730000 3.928476 23.482833 0.461991 0.019333
4999.298000 4999.290000 0.740000 3.908504 23.823634 0.478176 0.019760
5000.436000 5000.430000 0.750000 3.888791 24.182232 0.495004 0.020473
5001.588000 5001.580000 0.760000 3.878812 24.550551 0.507591 0.020795
5002.768000 5002.760000 0.780000 3.875718 25.248415 0.523641 0.021936
5003.955000 5003.950000 0.790000 3.871228 25.627021 0.533877 0.022339
5005.167000 5005.160000 0.800000 3.857182 26.015356 0.549637 0.023322
5006.398000 5006.390000 0.810000 3.841574 26.408184 0.566719 0.024338
5007.646000 5007.640000 0.830000 3.827946 27.118909 0.589943 0.025668
5008.917000 5008.910000 0.840000 3.817720 27.503146 0.604459 0.027255
5010.205000 5010.200000 0.850000 3.803833 27.888663 0.621505 0.028292
5011.517000 5011.510000 0.860000 3.792277 28.271450 0.637350 0.029260
5012.836000 5012.830000 0.880000 3.780051 28.980966 0.661385 0.030588
5014.188000 5014.180000 0.890000 3.764518 29.355680 0.680440 0.031591
5015.548000 5015.540000 0.900000 3.752554 29.729816 0.697400 0.032540
5016.936000 5016.930000 0.910000 3.746593 30.114324 0.710631 0.033461
5018.338000 5018.330000 0.930000 3.742514 30.835579 0.730635 0.034821
5019.758000 5019.750000 0.940000 3.734354 31.291958 0.747528 0.035660
5021.197000 5021.190000 0.950000 3.722883 31.683685 0.765604 0.036622
5022.656000 5022.650000 0.960000 3.713930 32.074764 0.782023 0.037663
5024.140000 5024.130000 0.980000 3.709402 32.812804 0.803665 0.038489
5025.630000 5025.630000 0.990000 3.706920 33.206538 0.815320 0.039032
5027.148000 5027.140000 1.000000 3.704734 33.602002 0.826837 0.039551
5028.687000 5028.680000 1.010000 3.700929 34.003788 0.839919 0.039743
5030.247000 5030.240000 1.030000 3.695767 34.740174 0.862557 0.040587
5031.817000 5031.810000 1.040000 3.690867 35.136314 0.876682 0.040266
5033.408000 5033.400000 1.050000 3.686423 35.539330 0.890671 0.040211
5035.016000 5035.010000 1.060000 3.686239 35.938137 0.900816 0.039789
5036.651000 5036.650000 1.080000 3.691895 36.686120 0.914383 0.039865
5038.298000 5038.300000 1.090000 3.700332 37.093022 0.916766 0.039833
5039.966000 5039.970000 1.100000 3.705589 37.580751 0.923954 0.040163
5041.650000 5041.650000 1.110000 3.706064 37.990016 0.933572 0.040627
5043.355000 5043.360000 1.130000 3.703506 38.738306 0.954396 0.042179
5045.089000 5045.090000 1.140000 3.699554 39.155075 0.968486 0.043133
5046.829000 5046.830000 1.150000 3.697432 39.557542 0.980517 0.044424
5048.599000 5048.600000 1.160000 3.697872 39.975664 0.990445 0.046103
5050.376000 5050.380000 1.180000 3.700431 40.747827 1.006998 0.047924
5052.178000 5052.180000 1.190000 3.704717 41.164359 1.012935 0.049250
5053.997000 5054.000000 1.200000 3.709323 41.587771 1.018656 0.050073
5055.837000 5055.840000 1.210000 3.713276 42.013322 1.025021 0.051192
5057.696000 5057.700000 1.230000 3.713513 42.792503 1.043784 0.052382
5059.578000 5059.580000 1.240000 3.707251 43.231398 1.061122 0.053409
5061.478000 5061.480000 1.250000 3.692751 43.663647 1.087379 0.054479
5063.395000 5063.400000 1.260000 3.672800 44.092257 1.120174 0.056240
5065.327000 5065.330000 1.280000 3.652800 44.891956 1.163531 0.058879
5067.284000 5067.290000 1.290000 3.637976 45.334489 1.192525 0.060793
5069.255000 5069.260000 1.300000 3.630558 45.775960 1.213119 0.061851
5071.258000 5071.260000 1.310000 3.630091 46.224142 1.225576 0.063191
5073.268000 5073.270000 1.330000 3.635504 47.039990 1.240478 0.063772
5075.300000 5075.300000 1.340000 3.640932 47.481558 1.245341 0.063819
5077.350000 5077.350000 1.350000 3.641618 47.938501 1.256469 0.063632
5079.421000 5079.420000 1.360000 3.636051 48.401057 1.275670 0.064196
5081.511000 5081.510000 1.380000 3.626256 49.221036 1.310061 0.064756
5083.608000 5083.610000 1.390000 3.613765 49.686400 1.339043 0.065001
5085.742000 5085.740000 1.400000 3.600384 50.154980 1.369897 0.065463
5087.887000 5087.890000 1.410000 3.589006 50.625289 1.398555 0.066054
5090.050000 5090.050000 1.430000 3.580405 51.465097 1.434030 0.067141
5092.228000 5092.230000 1.440000 3.574832 51.949407 1.455622 0.068223
5094.438000 5094.440000 1.450000 3.569764 52.431769 1.476599 0.070248
5096.660000 5096.660000 1.460000 3.562481 52.909246 1.500941 0.073240
5098.900000 5098.900000 1.480000 3.552524 53.754765 1.540185 0.077103
5101.163000 5101.160000 1.490000 3.540772 54.232375 1.572252 0.081162
5103.441000 5103.440000 1.500000 3.530405 54.720106 1.602920 0.084615
5105.744000 5105.740000 1.510000 3.521498 55.207255 1.631670 0.086838
5108.053000 5108.050000 1.530000 3.514758 56.057586 1.667999 0.089543
5110.393000 5110.390000 1.540000 3.510639 56.543158 1.689391 0.090485
5112.740000 5112.740000 1.550000 3.508587 57.038905 1.707701 0.091664
5115.119000 5115.120000 1.560000 3.507248 57.526578 1.724608 0.092778
5117.511000 5117.510000 1.580000 3.505661 58.535204 1.757632 0.094753
5119.921000 5119.920000 1.590000 3.504044 59.044365 1.775790 0.095918
5122.351000 5122.350000 1.600000 3.502984 59.551662 1.792948 0.097078
5124.802000 5124.800000 1.610000 3.503600 60.060959 1.807167 0.098809
5127.273000 5127.270000 1.630000 3.505099 60.967048 1.831686 0.101033
5129.759000 5129.760000 1.640000 3.503967 61.493209 1.849583 0.102120
5132.269000 5132.270000 1.650000 3.497786 62.031266 1.877329 0.103949
5134.789000 5134.790000 1.660000 3.488458 62.568766 1.911336 0.105410
5137.341000 5137.340000 1.680000 3.478959 63.492911 1.958087 0.107628
5139.901000 5139.900000 1.690000 3.468783 64.054872 1.995631 0.109191
5142.491000 5142.490000 1.700000 3.459385 64.604392 2.031750 0.110820
5145.090000 5145.090000 1.710000 3.450274 65.145131 2.067504 0.111570
5147.710000 5147.710000 1.730000 3.442484 66.081067 2.113598 0.113775
5150.353000 5150.350000 1.740000 3.435455 66.665922 2.147374 0.116081
5153.012000 5153.010000 1.750000 3.428354 67.374583 2.185657 0.118364
5155.689000 5155.690000 1.760000 3.419556 67.949545 2.223762 0.121910
5158.391000 5158.390000 1.780000 3.411242 68.901084 2.273748 0.126120
5161.110000 5161.110000 1.790000 3.405576 69.472864 2.305640 0.129395
5163.840000 5163.840000 1.800000 3.401683 70.054344 2.334013 0.131775
5166.599000 5166.600000 1.810000 3.397915 70.623688 2.361860 0.134764
5169.371000 5169.370000 1.830000 3.393648 71.639150 2.406062 0.139078
5172.173000 5172.170000 1.840000 3.389071 72.321349 2.440141 0.141989
5174.980000 5174.980000 1.850000 3.384997 72.889238 2.469327 0.145466
5177.810000 5177.810000 1.860000 3.380374 73.458762 2.500146 0.148646
5180.662000 5180.660000 1.880000 3.374095 74.450853 2.549893 0.152619
5183.530000 5183.530000 1.890000 3.364989 75.049744 2.593902 0.155960
5186.420000 5186.420000 1.900000 3.354348 75.652847 2.642709 0.159244
5189.323000 5189.320000 1.910000 3.344233 76.249929 2.690676 0.162525
5192.249000 5192.250000 1.930000 3.336031 77.238639 2.747991 0.166041
5195.201000 5195.200000 1.940000 3.328171 77.817449 2.790423 0.168836
5198.160000 5198.160000 1.950000 3.319034 78.375106 2.836220 0.171963
5201.138000 5201.140000 1.960000 3.309623 78.994515 2.885663 0.175146
5204.150000 5204.150000 1.980000 3.300886 80.029589 2.949141 0.179231
5207.168000 5207.170000 1.990000 3.292854 80.638759 2.995534 0.181977
5210.209000 5210.210000 2.000000 3.284887 81.259309 3.042743 0.184902
5213.270000 5213.270000 2.010000 3.277704 81.880833 3.088116 0.188380
5216.351000 5216.350000 2.030000 3.271878 82.921384 3.145637 0.192219
5219.451000 5219.450000 2.040000 3.266303 83.559456 3.187564 0.196153
5222.557000 5222.560000 2.050000 3.260726 84.197713 3.229866 0.199981
5225.701000 5225.700000 2.060000 3.256647 84.835154 3.267631 0.203117
5228.850000 5228.850000 2.080000 3.254158 85.876632 3.315991 0.207259
5232.031000 5232.030000 2.090000 3.251028 86.519575 3.351288 0.210734
5235.221000 5235.220000 2.100000 3.245418 87.207220 3.396940 0.214950
5238.430000 5238.430000 2.110000 3.237808 87.875746 3.449112 0.219966
5241.660000 5241.660000 2.130000 3.228964 88.936717 3.521770 0.226238
5244.920000 5244.920000 2.140000 3.220299 89.557129 3.577199 0.231821
5248.183000 5248.180000 2.150000 3.215403 89.686082 3.599948 0.234714
5251.469000 5251.470000 2.160000 3.205985 90.574060 3.669971 0.241300
5254.782000 5254.780000 2.180000 3.196508 92.026895 3.764360 0.249306
5258.108000 5258.110000 2.190000 3.189127 92.836731 3.825606 0.254705
5261.453000 5261.450000 2.200000 3.182070 93.615412 3.885025 0.260352
5264.820000 5264.820000 2.210000 3.174280 94.553464 3.954626 0.266177
5268.200000 5268.200000 2.230000 3.167038 95.751478 4.033849 0.271933
5271.601000 5271.600000 2.240000 3.159854 96.500165 4.094704 0.277045
5275.031000 5275.030000 2.250000 3.152899 97.366906 4.160316 0.281853
5278.471000 5278.470000 2.260000 3.145640 97.167275 4.182021 0.284444
5281.930000 5281.930000 2.280000 3.138088 99.177328 4.300906 0.293192
5285.401000 5285.400000 2.290000 3.130726 100.039379 4.370339 0.298986
5288.898000 5288.900000 2.300000 3.123424 100.844373 4.437782 0.304716
5292.422000 5292.420000 2.310000 3.116193 101.615535 4.504178 0.310656
5295.961000 5295.960000 2.330000 3.109159 102.911893 4.593835 0.318433
5299.508000 5299.510000 2.340000 3.101905 103.664443 4.661115 0.324952
5303.091000 5303.090000 2.350000 3.094393 104.571504 4.737364 0.331963
5306.679000 5306.680000 2.360000 3.086910 105.370696 4.809423 0.339439
5310.291000 5310.290000 2.380000 3.078851 106.658147 4.907575 0.347388
5313.918000 5313.920000 2.390000 3.070943 107.610658 4.990692 0.355114
5317.569000 5317.570000 2.400000 3.062886 108.435520 5.069645 0.362843
5321.239000 5321.240000 2.410000 3.054580 109.014653 5.139216 0.369798
5324.927000 5324.930000 2.430000 3.046076 110.082938 5.233906 0.378723
5328.641000 5328.640000 2.440000 3.037804 110.649504 5.304551 0.386510
5332.361000 5332.360000 2.450000 3.029929 111.358733 5.380764 0.394167
5336.110000 5336.110000 2.460000 3.021870 112.137847 5.462257 0.403162
5339.869000 5339.870000 2.480000 3.014597 113.387548 5.563419 0.413127
5343.657000 5343.660000 2.490000 3.007695 114.015259 5.632956 0.421650
5347.461000 5347.460000 2.500000 3.000524 114.608768 5.703064 0.429523
5351.280000 5351.280000 2.510000 2.993540 115.062047 5.765716 0.436202
5355.120000 5355.120000 2.530000 2.985548 115.687406 5.843610 0.444674
5358.979000 5358.980000 2.540000 2.978032 117.163879 5.962820 0.455471
5362.859000 5362.860000 2.550000 2.969864 117.849818 6.046899 0.463804
5366.760000 5366.760000 2.560000 2.962074 118.338308 6.119460 0.471324
5370.680000 5370.680000 2.580000 2.954769 119.292479 6.214038 0.480017
5374.612000 5374.610000 2.590000 2.947617 119.734770 6.281841 0.487297
5378.569000 5378.570000 2.600000 2.939924 120.232453 6.356652 0.495661
5382.539000 5382.540000 2.610000 2.931841 120.690970 6.432666 0.504199
5386.541000 5386.540000 2.630000 2.923705 121.631366 6.535778 0.515268
5390.549000 5390.550000 2.640000 2.915776 122.027711 6.609257 0.523907
5394.580000 5394.580000 2.650000 2.908289 122.545280 6.687176 0.533694
5398.632000 5398.630000 2.660000 2.900984 122.661589 6.742591 0.540867
5402.700000 5402.700000 2.680000 2.893926 123.585359 6.841490 0.551925
5406.786000 5406.790000 2.690000 2.886983 123.819785 6.902209 0.559574
5410.899000 5410.900000 2.700000 2.879631 124.299552 6.980109 0.569658
5415.020000 5415.020000 2.710000 2.871607 124.666197 7.057086 0.579131
5419.169000 5419.170000 2.730000 2.863443 124.971841 7.132386 0.589041
5423.329000 5423.330000 2.740000 2.855452 125.498736 7.219918 0.600023
5427.521000 5427.520000 2.750000 2.847209 125.811696 7.297827 0.609954
5431.722000 5431.720000 2.760000 2.839172 126.137872 7.375796 0.620382
5435.939000 5435.940000 2.780000 2.830903 126.890722 7.481417 0.632946
5440.180000 5440.180000 2.790000 2.822413 127.172338 7.561972 0.643647
5444.439000 5444.440000 2.800000 2.814359 127.583703 7.647744 0.654396
5448.721000 5448.720000 2.810000 2.806663 128.241503 7.746574 0.666201
5453.020000 5453.020000 2.830000 2.799040 129.211401 7.864904 0.680204
5457.342000 5457.340000 2.840000 2.791592 129.673380 7.952052 0.691693
5461.672000 5461.670000 2.850000 2.783755 130.209202 8.047713 0.703030
5466.030000 5466.030000 2.860000 2.775853 130.889311 8.153909 0.715806
5470.399000 5470.400000 2.880000 2.768030 132.078136 8.292590 0.731855
5474.802000 5474.800000 2.890000 2.760099 132.667067 8.395944 0.745413
5479.211000 5479.210000 2.900000 2.752383 133.293496 8.500884 0.758623
5483.641000 5483.640000 2.910000 2.744760 133.913297 8.605753 0.771860
5488.089000 5488.090000 2.930000 2.737287 135.017098 8.741776 0.788128
5492.559000 5492.560000 2.940000 2.729928 135.800048 8.857414 0.803755
5497.052000 5497.050000 2.950000 2.722037 136.474534 8.971939 0.818410
5501.561000 5501.560000 2.960000 2.714075 137.206389 9.092126 0.833972
5506.081000 5506.080000 2.980000 2.706014 138.395679 9.245192 0.852230
5510.630000 5510.630000 2.990000 2.697650 139.122073 9.371765 0.868624
5515.189000 5515.190000 3.000000 2.689450 139.972120 9.506677 0.886335
5519.779000 5519.780000 3.010000 2.681190 140.806851 9.642658 0.904236
5524.379000 5524.380000 3.030000 2.673066 142.039540 9.806392 0.924810
5529.000000 5529.000000 3.040000 2.664863 142.903220 9.947335 0.942854
5533.639000 5533.640000 3.050000 2.656991 143.770388 10.086790 0.962249
5538.300000 5538.300000 3.060000 2.649034 144.613351 10.226989 0.980680
5542.981000 5542.980000 3.080000 2.641274 145.893350 10.397869 1.002927
5547.683000 5547.680000 3.090000 2.633463 146.774138 10.542686 1.022744
5552.400000 5552.400000 3.100000 2.625699 147.619875 10.686064 1.042135
5557.128000 5557.130000 3.110000 2.618233 148.457003 10.827181 1.061513
5561.889000 5561.890000 3.130000 2.610684 150.116299 11.031188 1.087978
5566.658000 5566.660000 3.140000 2.603147 151.022479 11.181712 1.108909
5571.459000 5571.460000 3.150000 2.595379 151.877219 11.332702 1.129924
5576.271000 5576.270000 3.160000 2.587307 152.758148 11.490835 1.151770
5581.100000 5581.100000 3.180000 2.579156 154.127328 11.688675 1.178704
5585.951000 5585.950000 3.190000 2.571041 155.019579 11.852167 1.201960
5590.819000 5590.820000 3.200000 2.562790 155.833472 12.013103 1.224082
5595.708000 5595.710000 3.210000 2.554583 156.883683 12.193714 1.249749
5600.620000 5600.620000 3.230000 2.546200 158.344963 12.410936 1.279758
5605.541000 5605.540000 3.240000 2.537952 159.195179 12.580899 1.304290
5610.492000 5610.490000 3.250000 2.529680 159.968619 12.747071 1.328729
5615.451000 5615.450000 3.260000 2.521407 160.746014 12.915380 1.353444
5620.441000 5620.440000 3.280000 2.513134 161.996842 13.123997 1.383811
5625.439000 5625.440000 3.290000 2.508185 162.345072 13.217450 1.402139
5630.458000 5630.460000 3.300000 2.497893 163.006675 13.408576 1.430460
5635.500000 5635.500000 3.310000 2.489526 163.359001 13.550500 1.453971
5640.560000 5640.560000 3.330000 2.481207 164.797871 13.784044 1.487386
5645.638000 5645.640000 3.340000 2.473725 165.439513 13.941654 1.513403
5650.737000 5650.740000 3.350000 2.465726 165.947375 14.096733 1.538754
5655.858000 5655.860000 3.360000 2.457765 166.720408 14.275611 1.567943
5660.988000 5660.990000 3.380000 2.449374 168.097417 14.514830 1.603275
5666.149000 5666.150000 3.390000 2.441083 169.027572 14.716636 1.634489
5671.319000 5671.320000 3.400000 2.432818 170.096023 14.932602 1.667734
5676.521000 5676.520000 3.410000 2.424625 171.255015 15.158036 1.702343
5681.730000 5681.730000 3.430000 2.416256 172.616443 15.406907 1.740492
5686.960000 5686.960000 3.440000 2.408074 173.533701 15.616063 1.774144
5692.209000 5692.210000 3.450000 2.399831 174.299168 15.814733 1.806943
5697.480000 5697.480000 3.460000 2.391432 175.087298 16.020250 1.841292
5702.771000 5702.770000 3.480000 2.382845 176.389337 16.278582 1.881477
5708.080000 5708.080000 3.490000 2.374361 177.131410 16.486301 1.916910
