# XDI/1.0 BlueSky/1.5.0
# Beamline.name: 6BM
# Beamline.xray_source: NSLS-II three-pole wiggler
# Beamline.collimation: paraboloid mirror, 5 nm Rh on 30 nm Pt
# Beamline.focusing: not in use
# Beamline.harmonic_rejection: flat mirror, Si stripe, pitch = 7.0 mrad relative to beam
# Detector.i0: 10 cm N2
# Detector.i1: 25 cm N2
# Detector.i2: 25 cm N2
# Element.symbol: Ti
# Element.edge: K
# Facility.name: NSLS-II
# Facility.energy: 3.0
# Facility.current: 220.9
# Facility.mode: top-off
# Facility.gup: 301027
# Facility.saf: 304156
# Mono.name: Si(111)
# Mono.d_spacing: 3.1352584
# Mono.encoder_resolution: 0.0000050 deg/ct
# Mono.angle_offset: 16.0571090 deg
# Mono.scan_mode: pseudo channel cut
# Mono.scan_type: step
# Mono.direction: forward in energy
# Sample.name: Dy2TiO5
# Sample.prep: Powder in polyethylene glycol pellet
# Sample.x_position: -97.532 mm
# Sample.y_position: 117.543 mm
# Sample.wheel_position: -645.000 mm
# Scan.experimenters: Bruce Ravel, Martin Stennett
# Scan.edge_energy: 4966.0
# Scan.start_time: 2019-05-30T05:51:49
# Scan.end_time: 2019-05-30T06:34:29
# Scan.transient_id: 9797
# Scan.uid: 36538793-e70c-4f34-a315-29e40954a34b
# Scan.plot_hint: ln(I0/It)  --  ln($5/$6)
# Scan.sequence: merge of 3 scans
# Column.1: energy eV
# Column.2: requested_energy eV
# Column.3: measurement_time seconds
# Column.4: mutrans
# Column.5: i0
# Column.6: itrans
# Column.7: irefer
# /////
#  sample disk prepared by Martin
# -----
# energy   requested_energy   measurement_time   mutrans   i0   itrans   irefer
4765.994000 4766.000000 0.500000 3.814353 11.019308 0.243065 0.020090
4775.967000 4776.000000 0.500000 3.805574 11.208967 0.249359 0.020764
4786.008000 4786.000000 0.500000 3.780141 11.426998 0.260758 0.021903
4796.008000 4796.000000 0.500000 3.755212 11.643861 0.272414 0.022852
4806.007000 4806.000000 0.500000 3.729459 11.889921 0.285427 0.024479
4816.006000 4816.000000 0.500000 3.703589 12.104204 0.298186 0.025683
4826.005000 4826.000000 0.500000 3.679788 12.316132 0.310718 0.027077
4836.000000 4836.000000 0.500000 3.654151 12.544436 0.324693 0.028859
4846.000000 4846.000000 0.500000 3.629598 12.775669 0.338899 0.030571
4855.999000 4856.000000 0.500000 3.605855 12.993132 0.352944 0.032189
4866.008000 4866.000000 0.500000 3.582092 13.212101 0.367527 0.033778
4876.006000 4876.000000 0.500000 3.559101 13.430555 0.382296 0.035574
4886.004000 4886.000000 0.500000 3.535834 13.641968 0.397451 0.037174
4896.005000 4896.000000 0.500000 3.511954 13.843329 0.413068 0.039340
4906.002000 4906.000000 0.500000 3.488825 14.041560 0.428784 0.041220
4916.002000 4916.000000 0.500000 3.465731 14.237255 0.444918 0.043413
4926.002000 4926.000000 0.500000 3.443569 14.435750 0.461230 0.045436
4936.002000 4936.000000 0.500000 3.421148 14.625713 0.477894 0.047768
4938.001000 4938.000000 0.500000 3.416946 14.663857 0.481159 0.048162
4939.999000 4940.000000 0.500000 3.412023 14.699384 0.484705 0.048807
4941.997000 4942.000000 0.500000 3.407602 14.733158 0.487972 0.049224
4943.994000 4944.000000 0.500000 3.402978 14.769511 0.491437 0.049563
4946.007000 4946.000000 0.500000 3.398076 14.801813 0.494939 0.049960
4947.995000 4948.000000 0.500000 3.393964 14.830015 0.497916 0.050513
4950.007000 4950.000000 0.500000 3.390071 14.869057 0.501183 0.050725
4952.004000 4952.000000 0.500000 3.385881 14.901961 0.504399 0.050867
4954.006000 4954.000000 0.500000 3.381433 14.932269 0.507683 0.051447
4956.003000 4956.000000 0.500000 3.376854 14.961084 0.510993 0.051969
4956.246000 4956.250000 0.500000 3.376517 14.961194 0.511168 0.052269
4956.495000 4956.500000 0.500000 3.376417 14.965520 0.511367 0.052003
4956.745000 4956.750000 0.500000 3.375645 14.968038 0.511848 0.052147
4956.995000 4957.000000 0.500000 3.374835 14.971499 0.512381 0.051958
4957.247000 4957.250000 0.500000 3.374781 14.972834 0.512457 0.052161
4957.496000 4957.500000 0.500000 3.374096 14.975993 0.512914 0.052079
4957.744000 4957.750000 0.500000 3.373631 14.980616 0.513309 0.052289
4957.997000 4958.000000 0.500000 3.372525 14.984614 0.514016 0.052221
4958.244000 4958.250000 0.500000 3.372247 15.017538 0.515289 0.052481
4958.495000 4958.500000 0.500000 3.371545 15.022672 0.515827 0.052564
4958.744000 4958.750000 0.500000 3.371265 15.025056 0.516052 0.052521
4958.996000 4959.000000 0.500000 3.370707 15.029401 0.516492 0.052410
4959.248000 4959.250000 0.500000 3.370066 15.032624 0.516933 0.052513
4959.498000 4959.500000 0.500000 3.369855 15.033183 0.517061 0.052522
4959.748000 4959.750000 0.500000 3.368827 15.036031 0.517695 0.052579
4959.999000 4960.000000 0.500000 3.368062 15.039620 0.518211 0.052551
4960.245000 4960.250000 0.500000 3.367589 15.042019 0.518538 0.052875
4960.495000 4960.500000 0.500000 3.366833 15.045495 0.519049 0.052847
4960.746000 4960.750000 0.500000 3.366830 15.050911 0.519241 0.052748
4960.995000 4961.000000 0.500000 3.366292 15.056124 0.519697 0.052620
4961.248000 4961.250000 0.500000 3.365098 15.056046 0.520318 0.052762
4961.498000 4961.500000 0.500000 3.364344 15.061109 0.520883 0.052929
4961.748000 4961.750000 0.500000 3.364738 15.064916 0.520811 0.052443
4961.997000 4962.000000 0.500000 3.363719 15.070913 0.521549 0.052674
4962.247000 4962.250000 0.500000 3.363405 15.074150 0.521825 0.052594
4962.495000 4962.500000 0.500000 3.362837 15.080410 0.522338 0.052545
4962.745000 4962.750000 0.500000 3.362337 15.085159 0.522763 0.052220
4962.995000 4963.000000 0.500000 3.362121 15.087877 0.522970 0.052038
4963.249000 4963.250000 0.500000 3.361086 15.091961 0.523654 0.052073
4963.497000 4963.500000 0.500000 3.361039 15.096927 0.523850 0.051419
4963.749000 4963.750000 0.500000 3.360256 15.100941 0.524401 0.050846
4963.998000 4964.000000 0.500000 3.359981 15.106132 0.524725 0.049961
4964.246000 4964.250000 0.500000 3.358715 15.108285 0.525459 0.048567
4964.498000 4964.500000 0.500000 3.358413 15.112928 0.525785 0.046089
4964.747000 4964.750000 0.500000 3.358312 15.113348 0.525853 0.042833
4964.996000 4965.000000 0.500000 3.358075 15.118329 0.526152 0.039587
4965.250000 4965.250000 0.500000 3.357602 15.122374 0.526541 0.037088
4965.498000 4965.500000 0.500000 3.357355 15.126752 0.526823 0.036385
4965.749000 4965.750000 0.500000 3.357503 15.130829 0.526887 0.036305
4965.999000 4966.000000 0.500000 3.356490 15.133185 0.527503 0.037877
4966.249000 4966.250000 0.500000 3.356352 15.133397 0.527582 0.039343
4966.499000 4966.500000 0.500000 3.356940 15.136929 0.527396 0.040186
4966.749000 4966.750000 0.500000 3.357332 15.137131 0.527198 0.041140
4966.999000 4967.000000 0.500000 3.358972 15.140659 0.526452 0.041450
4967.251000 4967.250000 0.500000 3.360398 15.144350 0.525831 0.041394
4967.500000 4967.500000 0.500000 3.361539 15.142379 0.525168 0.041293
4967.753000 4967.750000 0.500000 3.363453 15.146618 0.524302 0.040729
4967.998000 4968.000000 0.500000 3.365161 15.155416 0.523722 0.040061
4968.250000 4968.250000 0.500000 3.365956 15.157406 0.523373 0.039291
4968.497000 4968.500000 0.500000 3.365225 15.162115 0.523913 0.038830
4968.747000 4968.750000 0.500000 3.363805 15.162013 0.524653 0.038066
4969.000000 4969.000000 0.500000 3.363467 15.159888 0.524760 0.037739
4969.247000 4969.250000 0.500000 3.362957 15.158695 0.524983 0.037204
4969.501000 4969.500000 0.500000 3.361313 15.158598 0.525849 0.036922
4969.750000 4969.750000 0.500000 3.360115 15.159560 0.526507 0.036761
4970.002000 4970.000000 0.500000 3.357854 15.164151 0.527869 0.036568
4970.248000 4970.250000 0.500000 3.356280 15.171500 0.528946 0.036482
4970.500000 4970.500000 0.500000 3.354427 15.180623 0.530251 0.036711
4970.749000 4970.750000 0.500000 3.353836 15.189461 0.530870 0.036497
4971.002000 4971.000000 0.500000 3.352801 15.200732 0.531817 0.036208
4971.251000 4971.250000 0.500000 3.351900 15.208147 0.532553 0.036149
4971.503000 4971.500000 0.500000 3.351816 15.212835 0.532766 0.035488
4971.751000 4971.750000 0.500000 3.351449 15.216672 0.533095 0.034925
4972.000000 4972.000000 0.500000 3.351337 15.247197 0.534224 0.034365
4972.250000 4972.250000 0.500000 3.351491 15.257087 0.534487 0.033715
4972.500000 4972.500000 0.500000 3.351798 15.262420 0.534510 0.033108
4972.751000 4972.750000 0.500000 3.351755 15.265615 0.534644 0.032195
4973.002000 4973.000000 0.500000 3.352195 15.268083 0.534496 0.031635
4973.252000 4973.250000 0.500000 3.352301 15.271997 0.534576 0.030986
4973.501000 4973.500000 0.500000 3.352479 15.271457 0.534463 0.030318
4973.749000 4973.750000 0.500000 3.351995 15.276257 0.534888 0.029939
4973.998000 4974.000000 0.500000 3.351313 15.279434 0.535364 0.029426
4974.250000 4974.250000 0.500000 3.352132 15.281045 0.534986 0.028913
4974.499000 4974.500000 0.500000 3.351969 15.281632 0.535091 0.028178
4974.753000 4974.750000 0.500000 3.351827 15.285265 0.535295 0.027631
4975.002000 4975.000000 0.500000 3.351894 15.285204 0.535256 0.027172
4975.254000 4975.250000 0.500000 3.352140 15.285340 0.535129 0.026491
4975.500000 4975.500000 0.500000 3.352089 15.285380 0.535159 0.026107
4975.750000 4975.750000 0.500000 3.351918 15.284852 0.535231 0.025671
4976.000000 4976.000000 0.500000 3.352331 15.282255 0.534921 0.025455
4976.253000 4976.250000 0.500000 3.352700 15.280992 0.534677 0.024786
4976.500000 4976.500000 0.500000 3.352887 15.283575 0.534669 0.024374
4976.752000 4976.750000 0.500000 3.352481 15.285505 0.534953 0.024128
4977.000000 4977.000000 0.500000 3.353051 15.283180 0.534569 0.023638
4977.251000 4977.250000 0.500000 3.353770 15.284939 0.534246 0.023329
4977.500000 4977.500000 0.500000 3.354226 15.287665 0.534096 0.023249
4977.750000 4977.750000 0.500000 3.354691 15.326818 0.535216 0.023021
4978.002000 4978.000000 0.500000 3.355591 15.327574 0.534756 0.022722
4978.251000 4978.250000 0.500000 3.356601 15.332876 0.534405 0.022556
4978.503000 4978.500000 0.500000 3.357233 15.334842 0.534136 0.022505
4978.753000 4978.750000 0.500000 3.357702 15.332455 0.533800 0.022077
4979.004000 4979.000000 0.500000 3.359551 15.333921 0.532868 0.021921
4979.251000 4979.250000 0.500000 3.360070 15.333504 0.532577 0.021847
4979.502000 4979.500000 0.500000 3.361306 15.332029 0.531862 0.022179
4979.747000 4979.750000 0.500000 3.363163 15.327929 0.530745 0.021852
4980.002000 4980.000000 0.500000 3.364872 15.327575 0.529818 0.021633
4980.250000 4980.250000 0.500000 3.367007 15.324834 0.528605 0.021562
4980.503000 4980.500000 0.500000 3.369470 15.324258 0.527269 0.021427
4980.750000 4980.750000 0.500000 3.372254 15.321622 0.525734 0.021363
4981.000000 4981.000000 0.500000 3.375409 15.320277 0.524017 0.021285
4981.251000 4981.250000 0.500000 3.379294 15.319616 0.521965 0.021069
4981.501000 4981.500000 0.500000 3.382315 15.320625 0.520404 0.021066
4981.751000 4981.750000 0.500000 3.386939 15.320757 0.518025 0.020731
4982.003000 4982.000000 0.500000 3.391477 15.323574 0.515765 0.020575
4982.253000 4982.250000 0.500000 3.395888 15.326678 0.513611 0.020517
4982.503000 4982.500000 0.500000 3.400895 15.330096 0.511149 0.020247
4982.748000 4982.750000 0.500000 3.405592 15.332232 0.508856 0.020286
4983.002000 4983.000000 0.500000 3.410275 15.334017 0.506497 0.020187
4983.248000 4983.250000 0.500000 3.414021 15.334258 0.504645 0.020131
4983.504000 4983.500000 0.500000 3.417590 15.329711 0.502669 0.019770
4983.749000 4983.750000 0.500000 3.420343 15.327780 0.501246 0.019949
4984.003000 4984.000000 0.500000 3.422261 15.326554 0.500235 0.020064
4984.250000 4984.250000 0.500000 3.423652 15.328390 0.499603 0.020022
4984.504000 4984.500000 0.500000 3.423910 15.326174 0.499403 0.020020
4984.750000 4984.750000 0.500000 3.423540 15.326317 0.499589 0.019938
4985.000000 4985.000000 0.500000 3.421857 15.328840 0.500511 0.020312
4985.248000 4985.250000 0.500000 3.420807 15.331698 0.501128 0.020157
4985.505000 4985.500000 0.500000 3.418065 15.335846 0.502649 0.020435
4985.751000 4985.750000 0.500000 3.416160 15.336044 0.503605 0.020498
4986.004000 4986.000000 0.500000 3.413626 15.334296 0.504833 0.020676
4986.251000 4986.250000 0.500000 3.410137 15.334510 0.506592 0.020776
4986.503000 4986.500000 0.500000 3.407298 15.331791 0.507956 0.021079
4986.749000 4986.750000 0.500000 3.405687 15.330163 0.508712 0.021065
4987.001000 4987.000000 0.500000 3.403595 15.358516 0.510727 0.021214
4987.250000 4987.250000 0.500000 3.401029 15.364201 0.512219 0.021408
4987.504000 4987.500000 0.500000 3.399382 15.362678 0.513020 0.021496
4987.754000 4987.750000 0.500000 3.397321 15.361995 0.514057 0.021602
4988.004000 4988.000000 0.500000 3.397039 15.368042 0.514404 0.021342
4988.252000 4988.250000 0.500000 3.395469 15.373458 0.515394 0.021667
4988.501000 4988.500000 0.500000 3.394771 15.380660 0.515993 0.021589
4988.749000 4988.750000 0.500000 3.394632 15.389785 0.516372 0.021797
4989.002000 4989.000000 0.500000 3.393857 15.403415 0.517231 0.021651
4989.252000 4989.250000 0.500000 3.393655 15.415558 0.517743 0.021711
4989.505000 4989.500000 0.500000 3.393495 15.426892 0.518204 0.021870
4989.753000 4989.750000 0.500000 3.393594 15.435597 0.518446 0.021692
4990.002000 4990.000000 0.500000 3.393531 15.450508 0.518981 0.021606
4990.252000 4990.250000 0.500000 3.393431 15.461341 0.519397 0.021925
4990.499000 4990.500000 0.500000 3.394101 15.474547 0.519492 0.021546
4990.750000 4990.750000 0.500000 3.393803 15.485159 0.520003 0.021907
4991.000000 4991.000000 0.500000 3.393645 15.497148 0.520488 0.021989
4991.253000 4991.250000 0.500000 3.394218 15.505991 0.520487 0.022150
4991.502000 4991.500000 0.500000 3.394103 15.518274 0.520959 0.022057
4991.752000 4991.750000 0.500000 3.395062 15.526831 0.520750 0.021923
4992.001000 4992.000000 0.500000 3.395152 15.538397 0.521087 0.021966
4992.251000 4992.250000 0.500000 3.395941 15.544041 0.520866 0.022281
4992.498000 4992.500000 0.500000 3.396277 15.549105 0.520860 0.022129
4992.752000 4992.750000 0.500000 3.396752 15.558057 0.520911 0.022156
4993.001000 4993.000000 0.500000 3.397407 15.562934 0.520736 0.022137
4993.254000 4993.250000 0.500000 3.397859 15.566623 0.520622 0.022192
4993.504000 4993.500000 0.500000 3.398115 15.570258 0.520611 0.022053
4993.753000 4993.750000 0.500000 3.398503 15.578245 0.520675 0.022158
4994.002000 4994.000000 0.500000 3.399212 15.582862 0.520461 0.022224
4994.249000 4994.250000 0.500000 3.399185 15.586352 0.520591 0.022108
4994.502000 4994.500000 0.500000 3.400079 15.588344 0.520191 0.022075
4994.749000 4994.750000 0.500000 3.400675 15.597389 0.520190 0.021872
4995.002000 4995.000000 0.500000 3.400299 15.597816 0.520394 0.021810
4995.250000 4995.250000 0.500000 3.400414 15.600819 0.520436 0.021866
4995.503000 4995.500000 0.500000 3.400287 15.602262 0.520548 0.021636
4995.751000 4995.750000 0.500000 3.399893 15.607363 0.520924 0.021423
4996.000000 4996.000000 0.700000 3.399389 21.838635 0.729271 0.029941
4997.092000 4997.080000 0.710000 3.395608 22.177787 0.743404 0.030010
4998.182000 4998.180000 0.730000 3.390303 22.803087 0.768420 0.030334
4999.298000 4999.290000 0.740000 3.384528 23.135424 0.784142 0.030522
5000.436000 5000.430000 0.750000 3.379767 23.475278 0.799455 0.030907
5001.584000 5001.580000 0.760000 3.376416 23.833959 0.814393 0.031684
5002.768000 5002.760000 0.780000 3.373395 24.513756 0.840161 0.032723
5003.957000 5003.950000 0.790000 3.370360 24.886779 0.855539 0.033397
5005.166000 5005.160000 0.800000 3.366148 25.262987 0.872134 0.034413
5006.397000 5006.390000 0.810000 3.360984 25.640673 0.889754 0.035828
5007.648000 5007.640000 0.830000 3.356028 26.335578 0.918414 0.037865
5008.914000 5008.910000 0.840000 3.351675 26.705914 0.935384 0.039704
5010.208000 5010.200000 0.850000 3.344906 27.082242 0.955011 0.041088
5011.518000 5011.510000 0.860000 3.338784 27.460348 0.974292 0.042730
5012.836000 5012.830000 0.880000 3.334053 28.211414 1.005688 0.044096
5014.185000 5014.180000 0.890000 3.330268 28.580994 1.022720 0.045170
5015.549000 5015.540000 0.900000 3.327382 28.956582 1.039169 0.046306
5016.936000 5016.930000 0.910000 3.324293 29.334947 1.055995 0.047570
5018.336000 5018.330000 0.930000 3.321727 30.038085 1.084085 0.049185
5019.757000 5019.750000 0.940000 3.317712 30.425425 1.102482 0.050391
5021.193000 5021.190000 0.950000 3.313211 30.813893 1.121604 0.051565
5022.649000 5022.650000 0.960000 3.308979 31.202688 1.140549 0.052582
5024.127000 5024.130000 0.980000 3.305084 31.920978 1.171371 0.054127
5025.637000 5025.630000 0.990000 3.301688 32.309406 1.189666 0.054837
5027.138000 5027.140000 1.000000 3.298797 32.697133 1.207420 0.055532
5028.689000 5028.680000 1.010000 3.295923 33.105065 1.226025 0.055998
5030.240000 5030.240000 1.030000 3.293547 33.817316 1.255363 0.056642
5031.815000 5031.810000 1.040000 3.290789 34.213069 1.273562 0.056504
5033.398000 5033.400000 1.050000 3.288058 34.614845 1.292036 0.055836
5035.011000 5035.010000 1.060000 3.284892 35.013708 1.311086 0.055865
5036.651000 5036.650000 1.080000 3.281503 35.740544 1.342834 0.056371
5038.292000 5038.300000 1.090000 3.278392 36.168915 1.363153 0.056467
5039.962000 5039.970000 1.100000 3.275560 36.572543 1.382277 0.057422
5041.645000 5041.650000 1.110000 3.273034 37.035948 1.403339 0.058247
5043.354000 5043.360000 1.130000 3.270588 37.776895 1.434915 0.060097
5045.089000 5045.090000 1.140000 3.268423 38.191297 1.453812 0.061876
5046.824000 5046.830000 1.150000 3.265412 38.605828 1.474015 0.063720
5048.597000 5048.600000 1.160000 3.262267 39.025677 1.494745 0.066114
5050.376000 5050.380000 1.180000 3.258862 39.790105 1.529220 0.069226
5052.176000 5052.180000 1.190000 3.255649 40.211393 1.550380 0.071777
5053.996000 5054.000000 1.200000 3.252254 40.645378 1.572440 0.073993
5055.835000 5055.840000 1.210000 3.248966 41.074697 1.594276 0.075787
5057.697000 5057.700000 1.230000 3.245655 41.854599 1.629944 0.078141
5059.575000 5059.580000 1.240000 3.241961 42.292892 1.653108 0.079228
5061.478000 5061.480000 1.250000 3.238160 42.733523 1.676697 0.080353
5063.396000 5063.400000 1.260000 3.234257 43.171385 1.700496 0.082516
5065.327000 5065.330000 1.280000 3.230673 43.966762 1.738045 0.084781
5067.286000 5067.290000 1.290000 3.226356 44.417515 1.763459 0.086549
5069.259000 5069.260000 1.300000 3.222053 44.871615 1.789172 0.088448
5071.258000 5071.260000 1.310000 3.217757 45.362902 1.816551 0.089964
5073.268000 5073.270000 1.330000 3.213098 46.231902 1.859987 0.092340
5075.298000 5075.300000 1.340000 3.208393 46.683988 1.887039 0.093416
5077.347000 5077.350000 1.350000 3.203990 47.149502 1.914262 0.094131
5079.419000 5079.420000 1.360000 3.198778 47.617659 1.943379 0.094297
5081.509000 5081.510000 1.380000 3.193742 48.438278 1.986848 0.094735
5083.609000 5083.610000 1.390000 3.188760 48.907814 2.016118 0.094472
5085.737000 5085.740000 1.400000 3.183420 49.389691 2.046884 0.094457
5087.890000 5087.890000 1.410000 3.178090 49.865468 2.077652 0.094674
5090.050000 5090.050000 1.430000 3.173120 50.705053 2.123172 0.095776
5092.228000 5092.230000 1.440000 3.168195 51.199196 2.154434 0.097774
5094.441000 5094.440000 1.450000 3.163614 51.714469 2.186115 0.100541
5096.662000 5096.660000 1.460000 3.158951 52.213333 2.217519 0.104391
5098.903000 5098.900000 1.480000 3.154084 53.072637 2.265021 0.110191
5101.161000 5101.160000 1.490000 3.149309 53.571708 2.297250 0.114916
5103.441000 5103.440000 1.500000 3.144893 54.092314 2.329841 0.119020
5105.743000 5105.740000 1.510000 3.140256 54.601075 2.362686 0.122436
5108.050000 5108.050000 1.530000 3.135915 55.476555 2.411005 0.125401
5110.389000 5110.390000 1.540000 3.131045 55.992256 2.445290 0.127460
5112.742000 5112.740000 1.550000 3.126551 56.514873 2.479240 0.129500
5115.122000 5115.120000 1.560000 3.121723 57.038177 2.514315 0.131480
5117.515000 5117.510000 1.580000 3.117079 57.930251 2.565539 0.134669
5119.921000 5119.920000 1.590000 3.112349 58.462736 2.601385 0.136860
5122.351000 5122.350000 1.600000 3.107664 58.996526 2.637460 0.139321
5124.799000 5124.800000 1.610000 3.102832 59.526411 2.674023 0.142053
5127.269000 5127.270000 1.630000 3.097773 60.437787 2.728741 0.145664
5129.762000 5129.760000 1.640000 3.092895 60.985716 2.766948 0.148511
5132.271000 5132.270000 1.650000 3.088008 61.537918 2.805691 0.151049
5134.793000 5134.790000 1.660000 3.082812 62.090982 2.845654 0.153482
5137.339000 5137.340000 1.680000 3.078006 63.144687 2.907867 0.156241
5139.898000 5139.900000 1.690000 3.073138 63.746618 2.949914 0.157439
5142.492000 5142.490000 1.700000 3.068102 64.322674 2.991613 0.159082
5145.091000 5145.090000 1.710000 3.063300 64.898557 3.032935 0.159865
5147.708000 5147.710000 1.730000 3.058238 65.854815 3.093233 0.162640
5150.350000 5150.350000 1.740000 3.053409 66.445840 3.136094 0.164559
5153.012000 5153.010000 1.750000 3.048123 67.033158 3.180600 0.168124
5155.691000 5155.690000 1.760000 3.042770 67.622426 3.225778 0.172589
5158.388000 5158.390000 1.780000 3.037385 68.595705 3.289856 0.178164
5161.109000 5161.110000 1.790000 3.032106 69.177745 3.335328 0.182346
5163.843000 5163.840000 1.800000 3.026767 69.777999 3.382305 0.187419
5166.601000 5166.600000 1.810000 3.021358 70.370634 3.429524 0.190880
5169.369000 5169.370000 1.830000 3.015685 71.357028 3.497364 0.196364
5172.173000 5172.170000 1.840000 3.010204 72.053774 3.550932 0.202433
5174.981000 5174.980000 1.850000 3.004550 72.684640 3.602341 0.207348
5177.808000 5177.810000 1.860000 2.999042 73.280300 3.651892 0.212177
5180.660000 5180.660000 1.880000 2.993211 74.290177 3.723877 0.217796
5183.531000 5183.530000 1.890000 2.987486 74.926351 3.777352 0.221961
5186.419000 5186.420000 1.900000 2.981552 75.534688 3.830666 0.225981
5189.323000 5189.320000 1.910000 2.976057 76.150099 3.883167 0.229684
5192.249000 5192.250000 1.930000 2.970295 77.151980 3.956983 0.234811
5195.201000 5195.200000 1.940000 2.964645 77.752007 4.010353 0.238265
5198.162000 5198.160000 1.950000 2.958916 78.312359 4.062479 0.241663
5201.139000 5201.140000 1.960000 2.953276 78.935182 4.117928 0.245493
5204.152000 5204.150000 1.980000 2.947420 79.994765 4.197735 0.250565
5207.171000 5207.170000 1.990000 2.941881 80.779734 4.262466 0.254259
5210.209000 5210.210000 2.000000 2.936125 81.437027 4.321930 0.257780
5213.271000 5213.270000 2.010000 2.930392 82.061568 4.380128 0.261735
5216.348000 5216.350000 2.030000 2.924689 83.107987 4.461348 0.268110
5219.452000 5219.450000 2.040000 2.918757 83.777402 4.524047 0.273807
5222.561000 5222.560000 2.050000 2.913161 84.454540 4.586218 0.278958
5225.703000 5225.700000 2.060000 2.907433 85.128773 4.649384 0.284523
5228.850000 5228.850000 2.080000 2.901644 86.199799 4.735200 0.290910
5232.030000 5232.030000 2.090000 2.895708 86.879663 4.800953 0.296669
5235.221000 5235.220000 2.100000 2.889909 87.587500 4.868227 0.302869
5238.431000 5238.430000 2.110000 2.883901 88.294336 4.937082 0.309614
5241.661000 5241.660000 2.130000 2.878067 89.394491 5.027849 0.318068
5244.921000 5244.920000 2.140000 2.872252 90.041304 5.093764 0.324247
5248.181000 5248.180000 2.150000 2.866428 90.210475 5.133137 0.329984
5251.468000 5251.470000 2.160000 2.860271 91.008457 5.210517 0.337487
5254.784000 5254.780000 2.180000 2.854252 92.489986 5.327342 0.347146
5258.110000 5258.110000 2.190000 2.848252 93.322958 5.407651 0.354909
5261.452000 5261.450000 2.200000 2.842331 94.037534 5.481436 0.361663
5264.820000 5264.820000 2.210000 2.836344 94.835733 5.561146 0.368733
5268.202000 5268.200000 2.230000 2.830223 96.047272 5.666764 0.376632
5271.599000 5271.600000 2.240000 2.824144 96.799852 5.745976 0.383597
5275.030000 5275.030000 2.250000 2.818029 97.647076 5.831826 0.390494
5278.471000 5278.470000 2.260000 2.811860 97.234541 5.843128 0.391454
5281.930000 5281.930000 2.280000 2.805590 99.425921 6.012403 0.404228
5285.403000 5285.400000 2.290000 2.799563 100.450675 6.111102 0.412481
5288.899000 5288.900000 2.300000 2.793311 101.248357 6.198235 0.419847
5292.423000 5292.420000 2.310000 2.787056 102.002566 6.283622 0.427933
5295.962000 5295.960000 2.330000 2.780949 103.249404 6.399382 0.438519
5299.512000 5299.510000 2.340000 2.774075 103.926207 6.485749 0.446967
5303.090000 5303.090000 2.350000 2.768211 104.677945 6.571081 0.455365
5306.680000 5306.680000 2.360000 2.761865 105.479385 6.663554 0.464046
5310.291000 5310.290000 2.380000 2.755445 106.743381 6.786829 0.475302
5313.918000 5313.920000 2.390000 2.748932 107.513148 6.880422 0.483772
5317.572000 5317.570000 2.400000 2.742726 108.287382 6.973132 0.493250
5321.241000 5321.240000 2.410000 2.736722 108.982853 7.060169 0.502615
5324.929000 5324.930000 2.430000 2.730299 110.172482 7.183239 0.514658
5328.642000 5328.640000 2.440000 2.723716 110.717095 7.266425 0.523552
5332.360000 5332.360000 2.450000 2.717682 111.331978 7.350998 0.533113
5336.111000 5336.110000 2.460000 2.710957 112.145192 7.454657 0.543859
5339.872000 5339.870000 2.480000 2.704250 113.379214 7.587400 0.557592
5343.659000 5343.660000 2.490000 2.697850 114.119332 7.685961 0.569002
5347.460000 5347.460000 2.500000 2.690978 114.718172 7.779568 0.579768
5351.281000 5351.280000 2.510000 2.684837 115.206045 7.860763 0.589234
5355.120000 5355.120000 2.530000 2.678398 115.586644 7.937699 0.597749
5358.981000 5358.980000 2.540000 2.671947 117.545994 8.124491 0.614480
5362.860000 5362.860000 2.550000 2.665541 118.212209 8.223030 0.624477
5366.759000 5366.760000 2.560000 2.659064 118.774101 8.315819 0.634105
5370.681000 5370.680000 2.580000 2.652464 119.781778 8.441914 0.645934
5374.610000 5374.610000 2.590000 2.645928 120.396967 8.540896 0.656832
5378.569000 5378.570000 2.600000 2.639306 120.972992 8.638778 0.667564
5382.540000 5382.540000 2.610000 2.632706 121.571225 8.738980 0.679181
5386.542000 5386.540000 2.630000 2.626121 122.564713 8.868616 0.693406
5390.552000 5390.550000 2.640000 2.619634 123.019116 8.959414 0.704725
5394.579000 5394.580000 2.650000 2.613147 123.590505 9.059617 0.716435
5398.632000 5398.630000 2.660000 2.606600 123.812814 9.135535 0.726859
5402.702000 5402.700000 2.680000 2.600118 124.922982 9.277398 0.741839
5406.788000 5406.790000 2.690000 2.593545 125.316953 9.368004 0.753741
5410.903000 5410.900000 2.700000 2.586824 125.776310 9.465755 0.766439
5415.020000 5415.020000 2.710000 2.580216 126.333555 9.570713 0.778723
5419.168000 5419.170000 2.730000 2.573594 126.700342 9.662260 0.791722
5423.329000 5423.330000 2.740000 2.567103 127.519561 9.788086 0.806585
5427.521000 5427.520000 2.750000 2.560409 128.009939 9.891722 0.820182
5431.718000 5431.720000 2.760000 2.553679 128.495159 9.996209 0.834010
5435.940000 5435.940000 2.780000 2.547014 129.510497 10.142641 0.851321
5440.182000 5440.180000 2.790000 2.540292 130.219348 10.266926 0.866771
5444.444000 5444.440000 2.800000 2.533692 130.942436 10.392294 0.882299
5448.721000 5448.720000 2.810000 2.526913 131.530973 10.510021 0.897377
5453.017000 5453.020000 2.830000 2.520432 132.621638 10.666042 0.915586
5457.342000 5457.340000 2.840000 2.513608 133.257561 10.790618 0.931638
5461.672000 5461.670000 2.850000 2.506811 133.944307 10.920182 0.947109
5466.035000 5466.030000 2.860000 2.500269 134.698079 11.053758 0.963476
5470.399000 5470.400000 2.880000 2.493444 135.919263 11.230310 0.983731
5474.803000 5474.800000 2.890000 2.486616 136.683814 11.370872 1.002070
5479.213000 5479.210000 2.900000 2.479943 137.788991 11.539560 1.022282
5483.640000 5483.640000 2.910000 2.473422 138.567815 11.680679 1.040712
5488.090000 5488.090000 2.930000 2.466681 139.825621 11.866444 1.063147
5492.560000 5492.560000 2.940000 2.459895 140.646936 12.017421 1.082883
5497.050000 5497.050000 2.950000 2.453037 141.504256 12.173860 1.103095
5501.561000 5501.560000 2.960000 2.446256 142.294044 12.325113 1.123073
5506.080000 5506.080000 2.980000 2.439500 143.620473 12.524343 1.147718
5510.629000 5510.630000 2.990000 2.432704 144.804287 12.713678 1.171473
5515.191000 5515.190000 3.000000 2.425923 145.726723 12.881741 1.193130
5519.782000 5519.780000 3.010000 2.419242 146.672415 13.052231 1.216519
5524.381000 5524.380000 3.030000 2.412237 148.113194 13.273064 1.243901
5529.000000 5529.000000 3.040000 2.405352 149.138436 13.457286 1.268700
5533.639000 5533.640000 3.050000 2.398591 150.121988 13.637947 1.293150
5538.298000 5538.300000 3.060000 2.391823 151.097572 13.819794 1.318199
5542.980000 5542.980000 3.080000 2.384891 152.593077 14.053622 1.348099
5547.680000 5547.680000 3.090000 2.378005 153.588247 14.243061 1.373894
5552.400000 5552.400000 3.100000 2.371170 154.621885 14.437231 1.400318
5557.129000 5557.130000 3.110000 2.364360 155.612900 14.629066 1.427268
5561.888000 5561.890000 3.130000 2.357489 157.117887 14.872410 1.458776
5566.659000 5566.660000 3.140000 2.350695 158.070540 15.064566 1.486135
5571.462000 5571.460000 3.150000 2.343868 159.063135 15.263042 1.514465
5576.272000 5576.270000 3.160000 2.336751 160.018003 15.464329 1.542855
5581.100000 5581.100000 3.180000 2.329890 161.494769 15.714458 1.576322
5585.951000 5585.950000 3.190000 2.323006 162.467820 15.918383 1.605700
5590.818000 5590.820000 3.200000 2.316066 163.387421 16.119942 1.635484
5595.709000 5595.710000 3.210000 2.309078 164.663934 16.359850 1.668658
5600.619000 5600.620000 3.230000 2.302190 166.156585 16.622235 1.705230
5605.540000 5605.540000 3.240000 2.295059 167.043340 16.830536 1.736513
5610.490000 5610.490000 3.250000 2.288139 167.977971 17.042222 1.768069
5615.452000 5615.450000 3.260000 2.281370 168.925978 17.254812 1.800554
5620.443000 5620.440000 3.280000 2.274263 170.315228 17.520810 1.839145
5625.443000 5625.440000 3.290000 2.267195 170.418049 17.655761 1.864014
5630.459000 5630.460000 3.300000 2.260044 171.126978 17.856357 1.896551
5635.500000 5635.500000 3.310000 2.253340 171.840126 18.051464 1.929070
5640.557000 5640.560000 3.330000 2.246186 173.690110 18.376751 1.974910
5645.638000 5645.640000 3.340000 2.239552 174.480458 18.583249 2.008643
5650.738000 5650.740000 3.350000 2.232508 175.232180 18.795234 2.043855
5655.857000 5655.860000 3.360000 2.225690 176.066014 19.013889 2.079698
5660.991000 5660.990000 3.380000 2.218611 177.703134 19.327064 2.126415
5666.149000 5666.150000 3.390000 2.211310 178.933276 19.603405 2.168789
5671.319000 5671.320000 3.400000 2.204126 180.365648 19.902822 2.214602
5676.520000 5676.520000 3.410000 2.197079 181.613092 20.182204 2.258898
5681.732000 5681.730000 3.430000 2.190019 183.374088 20.522307 2.310165
5686.961000 5686.960000 3.440000 2.183155 184.410265 20.780380 2.353163
5692.210000 5692.210000 3.450000 2.176003 185.324171 21.033245 2.395101
5697.481000 5697.480000 3.460000 2.168956 186.253145 21.288163 2.437945
5702.771000 5702.770000 3.480000 2.161825 187.755313 21.613439 2.489881
5708.081000 5708.080000 3.490000 2.154677 188.649683 21.872173 2.534504
