# XDI/1.0 BlueSky/1.5.0
# Beamline.name: 6BM
# Beamline.xray_source: NSLS-II three-pole wiggler
# Beamline.collimation: paraboloid mirror, 5 nm Rh on 30 nm Pt
# Beamline.focusing: not in use
# Beamline.harmonic_rejection: flat mirror, Si stripe, pitch = 7.0 mrad relative to beam
# Detector.i0: 10 cm N2
# Detector.i1: 25 cm N2
# Detector.i2: 25 cm N2
# Element.symbol: Ti
# Element.edge: K
# Facility.name: NSLS-II
# Facility.energy: 3.0
# Facility.current: 219.5
# Facility.mode: top-off
# Facility.gup: 301027
# Facility.saf: 304156
# Mono.name: Si(111)
# Mono.d_spacing: 3.1352584
# Mono.encoder_resolution: 0.0000050 deg/ct
# Mono.angle_offset: 16.0571090 deg
# Mono.scan_mode: pseudo channel cut
# Mono.scan_type: step
# Mono.direction: forward in energy
# Sample.name: Ce2/3TiO3
# Sample.prep: Powder in polyethylene glycol pellet
# Sample.x_position: -113.290 mm
# Sample.y_position: 117.505 mm
# Sample.wheel_position: 240.000 mm
# Scan.experimenters: Bruce Ravel, Martin Stennett
# Scan.edge_energy: 4966.0
# Scan.start_time: 2019-05-30T18:46:41
# Scan.end_time: 2019-05-30T19:30:34
# Scan.transient_id: 9849
# Scan.uid: e2b11d3c-c12a-4aa5-b32c-5765a332a951
# Scan.plot_hint: (DTC1 + DTC2 + DTC3 + DTC4) / I0  --  ($8+$9+$10+$11) / $5
# Scan.sequence: merge of 3 scans
# Column.1: energy eV
# Column.2: requested_energy eV
# Column.3: measurement_time seconds
# Column.4: mutrans
# Column.5: i0
# Column.6: itrans
# Column.7: irefer
# /////
#  sample disk prepared by Martin
# -----
# energy   requested_energy   measurement_time   mutrans   i0   itrans   irefer
4765.993000 4766.000000 0.500000 79.558158 10.473257 0.031846 0.004947
4776.007000 4776.000000 0.500000 78.062103 10.670943 0.031947 0.004744
4786.009000 4786.000000 0.500000 72.795545 10.922489 0.034042 0.005105
4796.007000 4796.000000 0.500000 69.112836 11.212523 0.036379 0.005379
4806.007000 4806.000000 0.500000 65.000737 11.477685 0.038641 0.005571
4816.008000 4816.000000 0.500000 62.342300 11.741265 0.041295 0.006004
4826.007000 4826.000000 0.500000 60.227051 12.011431 0.043954 0.006379
4835.998000 4836.000000 0.500000 55.674083 12.246408 0.046262 0.006612
4845.998000 4846.000000 0.500000 52.504263 12.503620 0.049265 0.006802
4856.000000 4856.000000 0.500000 48.122432 12.773635 0.052052 0.007362
4866.004000 4866.000000 0.500000 45.816935 13.039301 0.055223 0.007841
4876.005000 4876.000000 0.500000 41.891535 13.309285 0.058484 0.008231
4886.004000 4886.000000 0.500000 37.740367 13.613896 0.062320 0.008892
4896.002000 4896.000000 0.500000 37.573119 13.876819 0.065378 0.009053
4906.002000 4906.000000 0.500000 34.088389 14.186233 0.069626 0.009593
4916.000000 4916.000000 0.500000 32.528106 14.455868 0.073739 0.010577
4926.000000 4926.000000 0.500000 29.561884 14.729175 0.077572 0.010953
4935.998000 4936.000000 0.500000 29.160153 14.989546 0.081864 0.011478
4938.000000 4938.000000 0.500000 28.596319 15.039488 0.082315 0.011506
4939.995000 4940.000000 0.500000 29.282808 15.090884 0.083298 0.011815
4941.995000 4942.000000 0.500000 29.563825 15.137610 0.084249 0.011866
4943.993000 4944.000000 0.500000 29.059008 15.187163 0.085211 0.012053
4946.003000 4946.000000 0.500000 29.169577 15.229966 0.086031 0.012118
4947.992000 4948.000000 0.500000 27.517518 15.272321 0.086851 0.012523
4950.003000 4950.000000 0.500000 30.394744 15.323506 0.087708 0.012403
4952.002000 4952.000000 0.500000 28.678293 15.369632 0.088534 0.012494
4954.004000 4954.000000 0.500000 29.767356 15.415666 0.089471 0.012764
4956.001000 4956.000000 0.500000 31.099789 15.459563 0.089832 0.012575
4956.246000 4956.250000 0.500000 31.061030 15.467149 0.090459 0.012879
4956.494000 4956.500000 0.500000 31.376253 15.473718 0.090422 0.012858
4956.744000 4956.750000 0.500000 32.555631 15.480146 0.090646 0.012988
4956.993000 4957.000000 0.500000 31.308731 15.480107 0.090453 0.012758
4957.243000 4957.250000 0.500000 32.828238 15.484798 0.090707 0.012872
4957.492000 4957.500000 0.500000 33.866637 15.490562 0.090778 0.012945
4957.744000 4957.750000 0.500000 31.067767 15.494667 0.090863 0.012825
4957.994000 4958.000000 0.500000 32.626733 15.501973 0.090898 0.012854
4958.247000 4958.250000 0.500000 32.950606 15.507846 0.091267 0.012816
4958.496000 4958.500000 0.500000 31.275535 15.513728 0.091362 0.013191
4958.746000 4958.750000 0.500000 31.956025 15.522485 0.091398 0.012901
4958.992000 4959.000000 0.500000 32.017979 15.528300 0.091397 0.012817
4959.244000 4959.250000 0.500000 32.778086 15.530569 0.091315 0.012806
4959.495000 4959.500000 0.500000 33.782650 15.534257 0.091690 0.012949
4959.745000 4959.750000 0.500000 34.612684 15.541260 0.091663 0.012903
4959.994000 4960.000000 0.500000 34.220872 15.547425 0.091600 0.012863
4960.246000 4960.250000 0.500000 34.033999 15.551658 0.091866 0.012900
4960.498000 4960.500000 0.500000 33.108817 15.554463 0.091976 0.012914
4960.745000 4960.750000 0.500000 33.074712 15.560714 0.092040 0.012934
4960.998000 4961.000000 0.500000 35.405216 15.569930 0.092279 0.013097
4961.245000 4961.250000 0.500000 36.786633 15.571725 0.092301 0.013029
4961.494000 4961.500000 0.500000 35.650453 15.581563 0.092457 0.013012
4961.747000 4961.750000 0.500000 36.254090 15.585188 0.092548 0.012970
4961.998000 4962.000000 0.500000 36.474216 15.590138 0.092499 0.012985
4962.247000 4962.250000 0.500000 37.961092 15.596532 0.092859 0.013075
4962.499000 4962.500000 0.500000 36.410730 15.602674 0.092882 0.012920
4962.746000 4962.750000 0.500000 38.755319 15.605829 0.092862 0.012884
4962.998000 4963.000000 0.500000 39.004915 15.610132 0.092948 0.012935
4963.249000 4963.250000 0.500000 39.107559 15.616643 0.093099 0.012962
4963.496000 4963.500000 0.500000 41.048252 15.623866 0.093247 0.012757
4963.746000 4963.750000 0.500000 39.793936 15.629650 0.093360 0.012726
4963.998000 4964.000000 0.500000 40.976270 15.633847 0.093372 0.012436
4964.249000 4964.250000 0.500000 43.395877 15.637993 0.093507 0.012306
4964.500000 4964.500000 0.500000 45.273859 15.644771 0.093372 0.011608
4964.750000 4964.750000 0.500000 45.407645 15.647916 0.093458 0.011068
4964.999000 4965.000000 0.500000 48.923350 15.656443 0.093659 0.010481
4965.247000 4965.250000 0.500000 50.435554 15.656959 0.093534 0.009760
4965.497000 4965.500000 0.500000 53.842898 15.663380 0.093700 0.009576
4965.749000 4965.750000 0.500000 61.575806 15.668094 0.093529 0.009348
4965.999000 4966.000000 0.500000 66.429658 15.675552 0.093428 0.009278
4966.250000 4966.250000 0.500000 76.731694 15.677202 0.093126 0.009701
4966.502000 4966.500000 0.500000 84.503096 15.679588 0.093269 0.010263
4966.749000 4966.750000 0.500000 93.316033 15.686401 0.092908 0.010450
4967.000000 4967.000000 0.500000 109.447827 15.688978 0.092603 0.010535
4967.249000 4967.250000 0.500000 118.635832 15.688956 0.092305 0.010529
4967.498000 4967.500000 0.500000 133.458160 15.695640 0.092013 0.010415
4967.749000 4967.750000 0.500000 143.493601 15.699267 0.091826 0.010196
4968.000000 4968.000000 0.500000 149.383446 15.708277 0.091671 0.010096
4968.251000 4968.250000 0.500000 155.263432 15.713887 0.091347 0.009894
4968.502000 4968.500000 0.500000 166.935744 15.718340 0.091471 0.009864
4968.749000 4968.750000 0.500000 187.657157 15.721936 0.090567 0.009645
4969.001000 4969.000000 0.500000 212.612249 15.722128 0.090106 0.009446
4969.249000 4969.250000 0.500000 236.406101 15.721715 0.089490 0.009272
4969.498000 4969.500000 0.500000 239.640089 15.723271 0.089191 0.009242
4969.749000 4969.750000 0.500000 246.703682 15.725245 0.089278 0.009026
4970.000000 4970.000000 0.500000 235.611410 15.726158 0.089309 0.009075
4970.250000 4970.250000 0.500000 235.690525 15.733465 0.090003 0.009333
4970.499000 4970.500000 0.500000 232.740942 15.740056 0.089895 0.009043
4970.750000 4970.750000 0.500000 232.019853 15.756389 0.090204 0.009109
4971.000000 4971.000000 0.500000 231.106963 15.764110 0.090372 0.009117
4971.250000 4971.250000 0.500000 227.429476 15.775621 0.090426 0.008947
4971.499000 4971.500000 0.500000 235.116326 15.780070 0.090546 0.008949
4971.750000 4971.750000 0.500000 240.281715 15.783667 0.090338 0.008890
4972.003000 4972.000000 0.500000 243.595061 15.788675 0.090508 0.008876
4972.253000 4972.250000 0.500000 254.769132 15.792608 0.090161 0.008365
4972.504000 4972.500000 0.500000 266.227612 15.795321 0.089869 0.008225
4972.750000 4972.750000 0.500000 278.395507 15.797778 0.089475 0.008041
4973.000000 4973.000000 0.500000 286.099594 15.801500 0.089601 0.007965
4973.250000 4973.250000 0.500000 290.935656 15.801972 0.089550 0.008140
4973.499000 4973.500000 0.500000 293.321947 15.807127 0.089574 0.007730
4973.749000 4973.750000 0.500000 286.638020 15.807749 0.089713 0.007781
4974.003000 4974.000000 0.500000 284.060473 15.810808 0.089800 0.007651
4974.252000 4974.250000 0.500000 288.728540 15.810356 0.089865 0.007385
4974.501000 4974.500000 0.500000 284.552484 15.812514 0.090118 0.007224
4974.750000 4974.750000 0.500000 283.214347 15.812848 0.090356 0.007295
4975.001000 4975.000000 0.500000 283.850491 15.814165 0.090151 0.007045
4975.248000 4975.250000 0.500000 288.000617 15.816764 0.090116 0.006880
4975.501000 4975.500000 0.500000 295.423185 15.816951 0.090150 0.006837
4975.750000 4975.750000 0.500000 298.450289 15.816603 0.089897 0.006727
4976.003000 4976.000000 0.500000 312.596750 15.815881 0.089592 0.006716
4976.253000 4976.250000 0.500000 325.436340 15.854586 0.089546 0.006724
4976.501000 4976.500000 0.500000 341.089067 15.852173 0.089220 0.006673
4976.749000 4976.750000 0.500000 360.440128 15.853276 0.088481 0.006325
4977.000000 4977.000000 0.500000 383.782528 15.853184 0.087994 0.006533
4977.251000 4977.250000 0.500000 406.140187 15.854607 0.087421 0.006115
4977.502000 4977.500000 0.500000 433.745554 15.856015 0.086649 0.005950
4977.751000 4977.750000 0.500000 465.741347 15.858379 0.085851 0.005981
4978.002000 4978.000000 0.500000 495.282503 15.862526 0.085023 0.005862
4978.251000 4978.250000 0.500000 540.877214 15.865770 0.083865 0.005724
4978.503000 4978.500000 0.500000 573.810894 15.867892 0.083082 0.005776
4978.750000 4978.750000 0.500000 622.316988 15.871082 0.081582 0.005800
4979.002000 4979.000000 0.500000 670.380315 15.883742 0.080272 0.005434
4979.251000 4979.250000 0.500000 726.399350 15.896344 0.079101 0.005435
4979.504000 4979.500000 0.500000 778.850924 15.894361 0.077456 0.005293
4979.751000 4979.750000 0.500000 837.344940 15.893882 0.076030 0.005271
4980.002000 4980.000000 0.500000 903.076147 15.890647 0.074474 0.005196
4980.250000 4980.250000 0.500000 961.008679 15.905399 0.073230 0.005266
4980.502000 4980.500000 0.500000 1033.480620 15.922290 0.071245 0.004741
4980.750000 4980.750000 0.500000 1116.079508 15.922480 0.069601 0.005107
4981.000000 4981.000000 0.500000 1182.192396 15.921137 0.067807 0.004805
4981.252000 4981.250000 0.500000 1249.916980 15.920271 0.065943 0.004657
4981.503000 4981.500000 0.500000 1329.187128 15.918826 0.064639 0.004691
4981.751000 4981.750000 0.500000 1399.830522 15.921719 0.062858 0.004654
4982.001000 4982.000000 0.500000 1465.717523 15.924643 0.061456 0.004668
4982.248000 4982.250000 0.500000 1538.858893 15.929003 0.059988 0.004492
4982.500000 4982.500000 0.500000 1589.560938 15.933635 0.058906 0.004770
4982.750000 4982.750000 0.500000 1648.245464 15.933510 0.057840 0.004395
4983.002000 4983.000000 0.500000 1691.721868 15.936611 0.056770 0.004314
4983.252000 4983.250000 0.500000 1737.277333 15.938012 0.056025 0.004348
4983.503000 4983.500000 0.500000 1752.456913 15.936380 0.055438 0.004218
4983.749000 4983.750000 0.500000 1789.001217 15.937552 0.055246 0.004295
4984.001000 4984.000000 0.500000 1774.032025 15.934009 0.055122 0.004257
4984.248000 4984.250000 0.500000 1782.610313 15.935162 0.055133 0.004327
4984.503000 4984.500000 0.500000 1761.432713 15.936596 0.055495 0.004291
4984.750000 4984.750000 0.500000 1750.515186 15.936008 0.055733 0.004262
4985.003000 4985.000000 0.500000 1728.656133 15.939254 0.056571 0.004456
4985.252000 4985.250000 0.500000 1702.444623 15.940830 0.056958 0.004358
4985.505000 4985.500000 0.500000 1688.732818 15.943426 0.057412 0.004223
4985.751000 4985.750000 0.500000 1653.685595 15.945475 0.058116 0.004490
4986.000000 4986.000000 0.500000 1642.171396 15.947184 0.058718 0.004715
4986.250000 4986.250000 0.500000 1626.003730 15.945597 0.058982 0.004614
4986.504000 4986.500000 0.500000 1596.540353 15.945073 0.059506 0.004480
4986.752000 4986.750000 0.500000 1587.007536 15.943931 0.059846 0.004605
4987.002000 4987.000000 0.500000 1574.675757 15.940921 0.060174 0.004563
4987.254000 4987.250000 0.500000 1577.035511 15.939884 0.060528 0.004640
4987.503000 4987.500000 0.500000 1562.641638 15.939409 0.060414 0.004619
4987.748000 4987.750000 0.500000 1556.774106 15.940839 0.060620 0.004646
4988.002000 4988.000000 0.500000 1565.267867 15.943112 0.060973 0.004775
4988.249000 4988.250000 0.500000 1572.536851 15.947927 0.060405 0.004429
4988.503000 4988.500000 0.500000 1567.770463 15.958151 0.060697 0.004579
4988.750000 4988.750000 0.500000 1569.179399 15.971611 0.060895 0.004818
4989.002000 4989.000000 0.500000 1583.202316 15.981279 0.060660 0.004563
4989.252000 4989.250000 0.500000 1580.226360 15.995090 0.060812 0.004631
4989.501000 4989.500000 0.500000 1588.675321 16.010125 0.060699 0.004730
4989.749000 4989.750000 0.500000 1597.013148 16.023220 0.060525 0.004527
4990.002000 4990.000000 0.500000 1608.611714 16.038636 0.060602 0.004621
4990.253000 4990.250000 0.500000 1609.912776 16.051884 0.060492 0.004564
4990.500000 4990.500000 0.500000 1614.650120 16.064481 0.060618 0.004848
4990.752000 4990.750000 0.500000 1621.729594 16.078684 0.060194 0.004700
4991.003000 4991.000000 0.500000 1649.452730 16.092346 0.060248 0.004699
4991.252000 4991.250000 0.500000 1650.483729 16.104092 0.060220 0.004738
4991.499000 4991.500000 0.500000 1647.731142 16.114028 0.059965 0.004450
4991.750000 4991.750000 0.500000 1664.881824 16.125505 0.060186 0.004799
4992.000000 4992.000000 0.500000 1671.708248 16.135525 0.059769 0.004513
4992.253000 4992.250000 0.500000 1682.757688 16.145000 0.060166 0.004874
4992.501000 4992.500000 0.500000 1682.598757 16.154447 0.059837 0.004852
4992.751000 4992.750000 0.500000 1694.623963 16.161451 0.059684 0.004609
4993.001000 4993.000000 0.500000 1706.503401 16.166646 0.059749 0.004682
4993.249000 4993.250000 0.500000 1700.504399 16.174421 0.059783 0.004618
4993.498000 4993.500000 0.500000 1708.732049 16.178517 0.059609 0.004630
4993.751000 4993.750000 0.500000 1726.319489 16.186840 0.059537 0.004580
4994.002000 4994.000000 0.500000 1723.585830 16.190690 0.059564 0.004548
4994.254000 4994.250000 0.500000 1724.695872 16.197476 0.059803 0.004852
4994.504000 4994.500000 0.500000 1740.423371 16.203087 0.059318 0.004564
4994.752000 4994.750000 0.500000 1732.554818 16.209055 0.059657 0.004701
4995.001000 4995.000000 0.500000 1728.201616 16.215014 0.059635 0.004767
4995.247000 4995.250000 0.500000 1729.567259 16.217029 0.059562 0.004639
4995.500000 4995.500000 0.500000 1733.949299 16.221609 0.059710 0.004729
4995.749000 4995.750000 0.500000 1753.537417 16.225103 0.059665 0.004605
4996.003000 4996.000000 0.700000 1751.692626 22.696558 0.083447 0.006341
4997.091000 4997.080000 0.710000 1744.108349 23.066932 0.085477 0.006601
4998.188000 4998.180000 0.730000 1735.306170 23.716454 0.088110 0.006414
4999.298000 4999.290000 0.740000 1728.995168 24.061127 0.090333 0.006812
5000.436000 5000.430000 0.750000 1718.561887 24.430252 0.092460 0.006772
5001.588000 5001.580000 0.760000 1701.459078 24.811912 0.094748 0.006770
5002.767000 5002.760000 0.780000 1664.451877 25.526517 0.099050 0.007203
5003.956000 5003.950000 0.790000 1633.299525 25.918630 0.102445 0.007259
5005.168000 5005.160000 0.800000 1580.971884 26.310602 0.106094 0.007596
5006.397000 5006.390000 0.810000 1538.489484 26.715905 0.109918 0.007792
5007.647000 5007.640000 0.830000 1497.574175 27.441860 0.115165 0.008438
5008.918000 5008.910000 0.840000 1476.583536 27.834181 0.118591 0.008891
5010.205000 5010.200000 0.850000 1429.608571 28.235163 0.122400 0.009010
5011.514000 5011.510000 0.860000 1402.758588 28.628918 0.126753 0.009561
5012.836000 5012.830000 0.880000 1377.571167 29.351126 0.131440 0.009814
5014.185000 5014.180000 0.890000 1362.506147 29.743130 0.134765 0.010144
5015.545000 5015.540000 0.900000 1352.392635 30.129192 0.137491 0.010355
5016.935000 5016.930000 0.910000 1349.668151 30.518543 0.139936 0.010857
5018.335000 5018.330000 0.930000 1355.650764 31.256551 0.143814 0.010920
5019.756000 5019.750000 0.940000 1360.153888 31.664237 0.146232 0.011119
5021.194000 5021.190000 0.950000 1348.875830 32.066273 0.149075 0.011230
5022.654000 5022.650000 0.960000 1355.940605 32.471095 0.152024 0.011469
5024.137000 5024.130000 0.980000 1354.804713 33.218773 0.156084 0.011885
5025.637000 5025.630000 0.990000 1359.267583 33.658338 0.158581 0.011715
5027.148000 5027.140000 1.000000 1372.071254 34.111577 0.161344 0.012098
5028.686000 5028.680000 1.010000 1379.286655 34.526025 0.163679 0.012403
5030.244000 5030.240000 1.030000 1391.053313 35.368385 0.168167 0.012322
5031.814000 5031.810000 1.040000 1394.589076 35.783045 0.170974 0.012537
5033.405000 5033.400000 1.050000 1412.896953 36.197410 0.173367 0.012531
5035.015000 5035.010000 1.060000 1422.351448 36.606200 0.175266 0.012420
5036.655000 5036.650000 1.080000 1441.659486 37.370745 0.178470 0.012240
5038.294000 5038.300000 1.090000 1481.457035 37.798575 0.180244 0.012576
5039.975000 5039.970000 1.100000 1489.268694 38.212121 0.182410 0.012749
5041.647000 5041.650000 1.110000 1504.150580 38.630983 0.184858 0.012814
5043.355000 5043.360000 1.130000 1499.068157 39.427488 0.189792 0.013252
5045.089000 5045.090000 1.140000 1490.073648 39.897609 0.193396 0.013798
5046.824000 5046.830000 1.150000 1488.191894 40.323898 0.197040 0.014080
5048.597000 5048.600000 1.160000 1499.250971 40.752695 0.200331 0.014482
5050.378000 5050.380000 1.180000 1506.271211 41.536145 0.204715 0.015058
5052.178000 5052.180000 1.190000 1539.719990 41.958962 0.206235 0.015129
5053.996000 5054.000000 1.200000 1563.957675 42.390074 0.207906 0.015734
5055.832000 5055.840000 1.210000 1591.049041 42.827026 0.209749 0.016016
5057.695000 5057.700000 1.230000 1606.049349 43.625129 0.214310 0.016594
5059.574000 5059.580000 1.240000 1615.301838 44.060523 0.217230 0.016764
5061.476000 5061.480000 1.250000 1613.220404 44.507674 0.220998 0.016709
5063.392000 5063.400000 1.260000 1606.604272 44.950575 0.225092 0.017147
5065.324000 5065.330000 1.280000 1599.466864 45.758848 0.231271 0.017575
5067.281000 5067.290000 1.290000 1581.033782 46.196433 0.236739 0.018049
5069.256000 5069.260000 1.300000 1567.335213 46.644039 0.241696 0.018475
5071.254000 5071.260000 1.310000 1563.724675 47.092196 0.246394 0.018997
5073.264000 5073.270000 1.330000 1566.075272 47.901926 0.252437 0.019322
5075.297000 5075.300000 1.340000 1568.833667 48.341879 0.256121 0.019626
5077.347000 5077.350000 1.350000 1570.118659 48.784351 0.260502 0.019836
5079.414000 5079.420000 1.360000 1562.096843 49.231617 0.265076 0.019903
5081.509000 5081.510000 1.380000 1554.957277 50.034019 0.272825 0.020109
5083.604000 5083.610000 1.390000 1526.705508 50.475264 0.279074 0.020272
5085.736000 5085.740000 1.400000 1513.432675 50.916640 0.285447 0.020532
5087.889000 5087.890000 1.410000 1509.222059 51.353614 0.290750 0.020466
5090.050000 5090.050000 1.430000 1510.306929 52.164564 0.297424 0.020595
5092.234000 5092.230000 1.440000 1512.303690 52.601819 0.302092 0.021082
5094.443000 5094.440000 1.450000 1513.796269 53.046972 0.306753 0.021935
5096.662000 5096.660000 1.460000 1513.053009 53.493287 0.311491 0.022112
5098.899000 5098.900000 1.480000 1516.480601 54.305205 0.318612 0.023553
5101.164000 5101.160000 1.490000 1518.079631 54.735072 0.323477 0.024192
5103.442000 5103.440000 1.500000 1529.010398 55.189074 0.328216 0.025087
5105.742000 5105.740000 1.510000 1530.222574 55.642136 0.333199 0.025580
5108.049000 5108.050000 1.530000 1533.309569 56.451421 0.340612 0.026387
5110.390000 5110.390000 1.540000 1535.420489 56.900731 0.345229 0.026686
5112.744000 5112.740000 1.550000 1552.316107 57.362598 0.350390 0.027045
5115.122000 5115.120000 1.560000 1560.531394 57.810241 0.355365 0.027647
5117.513000 5117.510000 1.580000 1558.722723 58.643565 0.362491 0.028101
5119.923000 5119.920000 1.590000 1571.256347 59.109307 0.367656 0.028603
5122.350000 5122.350000 1.600000 1575.705414 59.572683 0.373438 0.029068
5124.802000 5124.800000 1.610000 1577.624110 60.047038 0.378879 0.029434
5127.269000 5127.270000 1.630000 1586.842105 60.895785 0.387116 0.030203
5129.763000 5129.760000 1.640000 1592.178809 61.365974 0.392704 0.030603
5132.270000 5132.270000 1.650000 1597.340628 61.844392 0.398450 0.030867
5134.790000 5134.790000 1.660000 1601.916651 62.319829 0.404585 0.031703
5137.340000 5137.340000 1.680000 1609.428955 63.186631 0.413084 0.032240
5139.899000 5139.900000 1.690000 1616.973005 63.671582 0.419298 0.032553
5142.492000 5142.490000 1.700000 1622.292178 64.159041 0.425415 0.032417
5145.090000 5145.090000 1.710000 1627.522109 64.652416 0.432379 0.033235
5147.710000 5147.710000 1.730000 1629.924286 65.530683 0.441741 0.033544
5150.349000 5150.350000 1.740000 1633.530169 66.021670 0.448920 0.033979
5153.012000 5153.010000 1.750000 1633.272617 66.690582 0.457319 0.034458
5155.693000 5155.690000 1.760000 1635.989758 67.376058 0.466200 0.035729
5158.390000 5158.390000 1.780000 1636.214111 68.440396 0.478028 0.036879
5161.109000 5161.110000 1.790000 1635.021889 68.948401 0.486100 0.037851
5163.841000 5163.840000 1.800000 1639.221904 69.478444 0.493900 0.038824
5166.601000 5166.600000 1.810000 1645.727035 69.988899 0.501768 0.039407
5169.371000 5169.370000 1.830000 1641.349578 70.892318 0.512867 0.040649
5172.172000 5172.170000 1.840000 1641.043691 71.415890 0.521501 0.041437
5174.981000 5174.980000 1.850000 1642.469881 71.927074 0.530927 0.043033
5177.810000 5177.810000 1.860000 1639.744506 72.446430 0.539857 0.043610
5180.661000 5180.660000 1.880000 1637.853443 73.355220 0.552169 0.045088
5183.530000 5183.530000 1.890000 1636.789118 73.920151 0.561992 0.045733
5186.421000 5186.420000 1.900000 1643.728299 74.450516 0.571719 0.046524
5189.319000 5189.320000 1.910000 1642.158648 74.972561 0.580869 0.047546
5192.252000 5192.250000 1.930000 1648.877467 75.878059 0.592987 0.048562
5195.199000 5195.200000 1.940000 1653.423118 76.410074 0.601987 0.049367
5198.161000 5198.160000 1.950000 1656.689220 76.916928 0.611234 0.050116
5201.140000 5201.140000 1.960000 1663.598578 77.455270 0.621362 0.051095
5204.149000 5204.150000 1.980000 1663.971939 78.402317 0.634353 0.052029
5207.169000 5207.170000 1.990000 1671.889709 78.955910 0.644410 0.052401
5210.209000 5210.210000 2.000000 1675.328824 79.515023 0.655255 0.053456
5213.270000 5213.270000 2.010000 1679.053283 80.050068 0.665881 0.054650
5216.351000 5216.350000 2.030000 1680.189112 80.962394 0.679560 0.055659
5219.452000 5219.450000 2.040000 1680.216656 81.480022 0.690540 0.057036
5222.560000 5222.560000 2.050000 1686.373901 82.020021 0.700871 0.057773
5225.699000 5225.700000 2.060000 1694.172894 82.504897 0.711684 0.059085
5228.851000 5228.850000 2.080000 1700.393394 83.411130 0.725539 0.060285
5232.030000 5232.030000 2.090000 1706.801133 83.941596 0.736604 0.061408
5235.220000 5235.220000 2.100000 1711.892781 84.490824 0.747784 0.062533
5238.432000 5238.430000 2.110000 1719.659130 85.035017 0.759885 0.064476
5241.663000 5241.660000 2.130000 1713.537688 85.974571 0.775901 0.065949
5244.921000 5244.920000 2.140000 1722.052306 86.494312 0.788928 0.067793
5248.181000 5248.180000 2.150000 1726.255351 86.592355 0.797155 0.068363
5251.471000 5251.470000 2.160000 1727.200978 87.172626 0.809560 0.070097
5254.782000 5254.780000 2.180000 1733.622827 88.510661 0.829634 0.072157
5258.109000 5258.110000 2.190000 1746.556515 89.165777 0.843120 0.073287
5261.451000 5261.450000 2.200000 1748.679629 89.745379 0.855948 0.074758
5264.820000 5264.820000 2.210000 1757.120029 90.379561 0.870029 0.076463
5268.202000 5268.200000 2.230000 1761.117896 91.444967 0.888222 0.078319
5271.602000 5271.600000 2.240000 1768.341802 92.072715 0.902787 0.079665
5275.030000 5275.030000 2.250000 1767.755180 92.818465 0.919778 0.081192
5278.472000 5278.470000 2.260000 1772.365433 92.153029 0.922252 0.081519
5281.930000 5281.930000 2.280000 1777.113041 94.385322 0.954040 0.084059
5285.403000 5285.400000 2.290000 1778.551367 95.142857 0.971586 0.085808
5288.900000 5288.900000 2.300000 1781.958476 95.815896 0.988167 0.087793
5292.419000 5292.420000 2.310000 1788.081295 96.455918 1.004612 0.089433
5295.961000 5295.960000 2.330000 1791.907911 97.870234 1.029558 0.091894
5299.510000 5299.510000 2.340000 1791.865225 98.704645 1.049273 0.094140
5303.092000 5303.090000 2.350000 1797.125189 99.428674 1.068091 0.096261
5306.681000 5306.680000 2.360000 1795.256151 100.257372 1.088540 0.098155
5310.291000 5310.290000 2.380000 1799.408454 101.393919 1.112591 0.101015
5313.920000 5313.920000 2.390000 1801.109105 102.122855 1.131700 0.102937
5317.570000 5317.570000 2.400000 1809.867578 102.773850 1.150528 0.105042
5321.238000 5321.240000 2.410000 1809.627818 103.243196 1.167532 0.107102
5324.932000 5324.930000 2.430000 1825.710126 104.350461 1.191218 0.110162
5328.641000 5328.640000 2.440000 1823.527579 104.907575 1.210163 0.112095
5332.361000 5332.360000 2.450000 1832.397094 105.547246 1.228532 0.114432
5336.111000 5336.110000 2.460000 1832.060770 106.183514 1.248090 0.116727
5339.872000 5339.870000 2.480000 1842.201302 107.280996 1.273558 0.119724
5343.658000 5343.660000 2.490000 1847.228121 107.872491 1.293361 0.122547
5347.459000 5347.460000 2.500000 1851.895018 108.437751 1.313476 0.124866
5351.281000 5351.280000 2.510000 1857.896828 108.862586 1.331635 0.127208
5355.118000 5355.120000 2.530000 1862.013814 109.202916 1.348891 0.128939
5358.984000 5358.980000 2.540000 1868.419508 110.881218 1.383087 0.132945
5362.861000 5362.860000 2.550000 1871.333307 111.555585 1.405817 0.135659
5366.757000 5366.760000 2.560000 1877.264082 112.080675 1.426560 0.137840
5370.680000 5370.680000 2.580000 1883.185971 112.954194 1.452443 0.141022
5374.610000 5374.610000 2.590000 1889.482972 113.380862 1.472792 0.143181
5378.569000 5378.570000 2.600000 1893.763736 113.913589 1.495108 0.145416
5382.542000 5382.540000 2.610000 1894.862211 114.402246 1.516464 0.148542
5386.543000 5386.540000 2.630000 1898.995913 115.307155 1.544145 0.151836
5390.549000 5390.550000 2.640000 1907.714960 115.637405 1.563788 0.154677
5394.581000 5394.580000 2.650000 1910.808482 116.137858 1.586549 0.157471
5398.632000 5398.630000 2.660000 1923.106217 116.210239 1.602697 0.159716
5402.700000 5402.700000 2.680000 1926.215464 117.080890 1.630550 0.163124
5406.792000 5406.790000 2.690000 1935.751224 117.097959 1.646680 0.165634
5410.902000 5410.900000 2.700000 1937.689156 117.253699 1.666382 0.168431
5415.020000 5415.020000 2.710000 1945.507255 117.572973 1.686789 0.171502
5419.168000 5419.170000 2.730000 1952.929726 117.646348 1.705112 0.174487
5423.332000 5423.330000 2.740000 1956.837117 118.100242 1.729055 0.177635
5427.522000 5427.520000 2.750000 1965.349542 118.249146 1.748386 0.180326
5431.722000 5431.720000 2.760000 1976.567361 118.283494 1.767593 0.183506
5435.940000 5435.940000 2.780000 1977.490474 118.791255 1.792702 0.186422
5440.183000 5440.180000 2.790000 1979.738175 118.931636 1.813822 0.190074
5444.441000 5444.440000 2.800000 1991.605241 119.295668 1.838215 0.193206
5448.718000 5448.720000 2.810000 1991.027309 119.641840 1.863248 0.196741
5453.016000 5453.020000 2.830000 2001.580084 120.536322 1.896845 0.200961
5457.340000 5457.340000 2.840000 2005.200660 120.716325 1.920382 0.204429
5461.673000 5461.670000 2.850000 2010.811178 120.929674 1.942910 0.207566
5466.031000 5466.030000 2.860000 2017.351505 121.156245 1.967261 0.211312
5470.398000 5470.400000 2.880000 2027.200705 121.899271 2.000258 0.215600
5474.800000 5474.800000 2.890000 2029.803637 122.201324 2.026487 0.219470
5479.212000 5479.210000 2.900000 2038.733230 122.543442 2.053309 0.223265
5483.640000 5483.640000 2.910000 2044.503214 122.967832 2.082184 0.227098
5488.091000 5488.090000 2.930000 2048.001902 123.738061 2.114695 0.231847
5492.562000 5492.560000 2.940000 2062.924383 124.215005 2.144552 0.236103
5497.049000 5497.050000 2.950000 2067.615483 124.751344 2.177710 0.240731
5501.564000 5501.560000 2.960000 2073.164138 125.283980 2.210514 0.245818
5506.080000 5506.080000 2.980000 2080.195112 126.271891 2.250489 0.251394
5510.629000 5510.630000 2.990000 2085.023266 126.795757 2.284078 0.256489
5515.189000 5515.190000 3.000000 2092.662218 127.443161 2.319751 0.261415
5519.784000 5519.780000 3.010000 2106.324274 128.181941 2.358065 0.267119
5524.384000 5524.380000 3.030000 2116.384476 129.252220 2.402090 0.273088
5529.000000 5529.000000 3.040000 2118.695360 129.995370 2.441941 0.278528
5533.640000 5533.640000 3.050000 2126.357551 130.685206 2.481143 0.284555
5538.300000 5538.300000 3.060000 2127.867488 131.455549 2.521572 0.290724
5542.981000 5542.980000 3.080000 2141.591386 132.694535 2.573623 0.298421
5547.681000 5547.680000 3.090000 2146.217436 133.483199 2.617165 0.304729
5552.400000 5552.400000 3.100000 2152.065991 134.415140 2.664213 0.310925
5557.129000 5557.130000 3.110000 2160.092516 135.154153 2.707817 0.317562
5561.889000 5561.890000 3.130000 2165.252692 136.484885 2.764370 0.325778
5566.661000 5566.660000 3.140000 2173.015840 137.361080 2.812515 0.333040
5571.461000 5571.460000 3.150000 2178.438509 138.162249 2.859338 0.339743
5576.272000 5576.270000 3.160000 2184.713095 138.898708 2.905277 0.346840
5581.100000 5581.100000 3.180000 2196.010184 140.264122 2.966740 0.355950
5585.949000 5585.950000 3.190000 2202.157321 141.083864 3.016089 0.364045
5590.819000 5590.820000 3.200000 2216.060956 141.890820 3.066003 0.371436
5595.708000 5595.710000 3.210000 2213.400536 142.745608 3.118196 0.379406
5600.619000 5600.620000 3.230000 2224.845156 144.152718 3.182460 0.388411
5605.539000 5605.540000 3.240000 2229.154611 145.644089 3.250698 0.398818
5610.492000 5610.490000 3.250000 2237.735174 146.626420 3.308571 0.407721
5615.452000 5615.450000 3.260000 2246.592480 147.371722 3.361962 0.416773
5620.443000 5620.440000 3.280000 2259.363804 148.641795 3.428334 0.426635
5625.440000 5625.440000 3.290000 2261.423135 148.699113 3.468343 0.434119
5630.463000 5630.460000 3.300000 2263.357905 148.986697 3.513920 0.442365
5635.500000 5635.500000 3.310000 2280.489128 149.991818 3.577993 0.452237
5640.560000 5640.560000 3.330000 2285.456743 151.244822 3.648123 0.463358
5645.637000 5645.640000 3.340000 2290.465366 151.836704 3.701670 0.472585
5650.740000 5650.740000 3.350000 2302.966184 152.410718 3.757601 0.481902
5655.860000 5655.860000 3.360000 2307.672120 153.123857 3.815973 0.492096
5660.990000 5660.990000 3.380000 2311.530255 154.490270 3.892736 0.504272
5666.152000 5666.150000 3.390000 2320.761936 155.395391 3.958117 0.514986
5671.321000 5671.320000 3.400000 2332.076892 156.332700 4.026327 0.526385
5676.520000 5676.520000 3.410000 2338.259468 157.241874 4.092241 0.537599
5681.730000 5681.730000 3.430000 2344.204207 158.597702 4.170740 0.550463
5686.961000 5686.960000 3.440000 2357.440142 159.426022 4.235933 0.562291
5692.212000 5692.210000 3.450000 2369.343893 160.139887 4.296193 0.572827
5697.480000 5697.480000 3.460000 2379.826684 160.856052 4.353954 0.583351
5702.769000 5702.770000 3.480000 2384.884493 161.944681 4.417007 0.595212
5708.080000 5708.080000 3.490000 2403.444609 162.660730 4.453447 0.603336
