# XDI/1.0 BlueSky/1.5.0
# Beamline.name: 6BM
# Beamline.xray_source: NSLS-II three-pole wiggler
# Beamline.collimation: paraboloid mirror, 5 nm Rh on 30 nm Pt
# Beamline.focusing: not in use
# Beamline.harmonic_rejection: flat mirror, Si stripe, pitch = 7.0 mrad relative to beam
# Detector.i0: 10 cm N2
# Detector.i1: 25 cm N2
# Detector.i2: 25 cm N2
# Element.symbol: Ti
# Element.edge: K
# Facility.name: NSLS-II
# Facility.energy: 3.0
# Facility.current: 220.4
# Facility.mode: top-off
# Facility.gup: 301027
# Facility.saf: 304156
# Mono.name: Si(111)
# Mono.d_spacing: 3.1352584
# Mono.encoder_resolution: 0.0000050 deg/ct
# Mono.angle_offset: 16.0571090 deg
# Mono.scan_mode: pseudo channel cut
# Mono.scan_type: step
# Mono.direction: forward in energy
# Sample.name: Ti2O3
# Sample.prep: Powder in polyethylene glycol pellet
# Sample.x_position: -97.532 mm
# Sample.y_position: 117.543 mm
# Sample.wheel_position: -705.000 mm
# Scan.experimenters: Bruce Ravel, Martin Stennett
# Scan.edge_energy: 4966.0
# Scan.start_time: 2019-05-30T08:45:18
# Scan.end_time: 2019-05-30T09:28:15
# Scan.transient_id: 9809
# Scan.uid: 15d7abe1-6ad8-486c-9140-32319bb7e3b8
# Scan.plot_hint: ln(I0/It)  --  ln($5/$6)
# Scan.sequence: merge of 3 scans
# Column.1: energy eV
# Column.2: requested_energy eV
# Column.3: measurement_time seconds
# Column.4: mutrans
# Column.5: i0
# Column.6: itrans
# Column.7: irefer
# /////
#  sample disk prepared by Martin
# -----
# energy   requested_energy   measurement_time   mutrans   i0   itrans   irefer
4765.998000 4766.000000 0.500000 4.131557 11.006869 0.176753 0.014995
4776.008000 4776.000000 0.500000 4.102752 11.192458 0.184980 0.015835
4786.008000 4786.000000 0.500000 4.071948 11.405481 0.194396 0.016819
4796.009000 4796.000000 0.500000 4.042536 11.620365 0.203972 0.017838
4806.009000 4806.000000 0.500000 4.013594 11.838464 0.213901 0.018681
4816.010000 4816.000000 0.500000 3.984506 12.051165 0.224172 0.019940
4826.006000 4826.000000 0.500000 3.956179 12.260027 0.234609 0.021064
4836.004000 4836.000000 0.500000 3.927476 12.486819 0.245907 0.022276
4846.004000 4846.000000 0.500000 3.899828 12.706704 0.257253 0.023353
4856.002000 4856.000000 0.500000 3.872261 12.922668 0.268932 0.024653
4866.008000 4866.000000 0.500000 3.843628 13.141145 0.281427 0.026352
4876.013000 4876.000000 0.500000 3.816125 13.356266 0.294014 0.027604
4886.010000 4886.000000 0.500000 3.788973 13.567725 0.306889 0.029211
4896.007000 4896.000000 0.500000 3.761584 13.770263 0.320116 0.031021
4906.006000 4906.000000 0.500000 3.735833 13.967197 0.333163 0.032444
4916.005000 4916.000000 0.500000 3.709728 14.159617 0.346686 0.034125
4926.005000 4926.000000 0.500000 3.684798 14.353239 0.360300 0.035739
4936.002000 4936.000000 0.500000 3.660318 14.546479 0.374199 0.037672
4938.002000 4938.000000 0.500000 3.655236 14.583523 0.377064 0.038066
4940.000000 4940.000000 0.500000 3.651430 14.618437 0.379408 0.038446
4942.001000 4942.000000 0.500000 3.646772 14.654294 0.382119 0.038835
4943.997000 4944.000000 0.500000 3.641195 14.688855 0.385153 0.039188
4946.007000 4946.000000 0.500000 3.637917 14.719769 0.387235 0.039446
4948.007000 4948.000000 0.500000 3.633154 14.749711 0.389876 0.039700
4950.006000 4950.000000 0.500000 3.628564 14.785142 0.392610 0.040397
4952.005000 4952.000000 0.500000 3.625386 14.821969 0.394840 0.040497
4954.004000 4954.000000 0.500000 3.622299 14.852680 0.396882 0.040703
4956.004000 4956.000000 0.500000 3.619926 14.879200 0.398534 0.040862
4956.245000 4956.250000 0.500000 3.619560 14.883260 0.398789 0.040914
4956.496000 4956.500000 0.500000 3.619460 14.887219 0.398936 0.040673
4956.745000 4956.750000 0.500000 3.618418 14.888587 0.399386 0.041143
4956.995000 4957.000000 0.500000 3.618624 14.890971 0.399369 0.041186
4957.245000 4957.250000 0.500000 3.618776 14.895366 0.399427 0.040992
4957.495000 4957.500000 0.500000 3.617664 14.897753 0.399935 0.041183
4957.747000 4957.750000 0.500000 3.617447 14.902480 0.400149 0.041355
4957.996000 4958.000000 0.500000 3.617864 14.907301 0.400112 0.041175
4958.245000 4958.250000 0.500000 3.617186 14.909526 0.400443 0.041264
4958.495000 4958.500000 0.500000 3.617613 14.914339 0.400401 0.040846
4958.746000 4958.750000 0.500000 3.617100 14.918234 0.400709 0.041043
4958.998000 4959.000000 0.500000 3.616990 14.920974 0.400826 0.041306
4959.248000 4959.250000 0.500000 3.617265 14.921855 0.400743 0.040905
4959.497000 4959.500000 0.500000 3.616261 14.925065 0.401229 0.041370
4959.748000 4959.750000 0.500000 3.616949 14.929752 0.401082 0.040908
4959.997000 4960.000000 0.500000 3.616768 14.934609 0.401282 0.041111
4960.245000 4960.250000 0.500000 3.616809 14.938075 0.401365 0.041105
4960.494000 4960.500000 0.500000 3.617048 14.942889 0.401394 0.041103
4960.747000 4960.750000 0.500000 3.616918 14.947129 0.401560 0.041192
4960.995000 4961.000000 0.500000 3.617397 14.951691 0.401490 0.041277
4961.247000 4961.250000 0.500000 3.617037 14.952472 0.401656 0.040981
4961.498000 4961.500000 0.500000 3.617450 14.956022 0.401585 0.040962
4961.747000 4961.750000 0.500000 3.617666 14.961123 0.401635 0.040922
4961.997000 4962.000000 0.500000 3.617707 14.967302 0.401785 0.040886
4962.248000 4962.250000 0.500000 3.618753 15.004643 0.402366 0.041116
4962.495000 4962.500000 0.500000 3.619554 15.007605 0.402128 0.040654
4962.745000 4962.750000 0.500000 3.620015 15.014628 0.402126 0.040499
4962.997000 4963.000000 0.500000 3.620967 15.018371 0.401843 0.040361
4963.247000 4963.250000 0.500000 3.621449 15.022465 0.401758 0.040328
4963.498000 4963.500000 0.500000 3.623342 15.027575 0.401134 0.039938
4963.749000 4963.750000 0.500000 3.624886 15.030088 0.400581 0.039243
4963.999000 4964.000000 0.500000 3.627163 15.033473 0.399762 0.038518
4964.249000 4964.250000 0.500000 3.629048 15.036287 0.399086 0.037347
4964.497000 4964.500000 0.500000 3.631895 15.045614 0.398198 0.035371
4964.748000 4964.750000 0.500000 3.635763 15.051617 0.396817 0.033265
4964.994000 4965.000000 0.500000 3.642703 15.055209 0.394190 0.030187
4965.249000 4965.250000 0.500000 3.652178 15.079648 0.391085 0.028169
4965.502000 4965.500000 0.500000 3.667362 15.082822 0.385241 0.026963
4965.750000 4965.750000 0.500000 3.688002 15.088473 0.377519 0.026471
4966.001000 4966.000000 0.500000 3.712212 15.092285 0.368566 0.026429
4966.249000 4966.250000 0.500000 3.732775 15.096271 0.361238 0.027252
4966.499000 4966.500000 0.500000 3.748959 15.098441 0.355443 0.027685
4966.749000 4966.750000 0.500000 3.765509 15.100780 0.349686 0.027780
4966.998000 4967.000000 0.500000 3.783553 15.101891 0.343416 0.027532
4967.251000 4967.250000 0.500000 3.805111 15.102187 0.336078 0.026977
4967.499000 4967.500000 0.500000 3.826529 15.107298 0.329131 0.026435
4967.752000 4967.750000 0.500000 3.845361 15.112459 0.323045 0.025801
4968.003000 4968.000000 0.500000 3.860122 15.118686 0.318462 0.025080
4968.249000 4968.250000 0.500000 3.869840 15.125709 0.315557 0.024435
4968.500000 4968.500000 0.500000 3.880800 15.128590 0.312153 0.023857
4968.747000 4968.750000 0.500000 3.893202 15.127451 0.308309 0.023270
4968.998000 4969.000000 0.500000 3.903281 15.128022 0.305222 0.022964
4969.248000 4969.250000 0.500000 3.912451 15.128346 0.302456 0.022280
4969.498000 4969.500000 0.500000 3.916331 15.130299 0.301309 0.022167
4969.752000 4969.750000 0.500000 3.919723 15.133027 0.300339 0.021817
4969.999000 4970.000000 0.500000 3.923722 15.137182 0.299230 0.021622
4970.251000 4970.250000 0.500000 3.926493 15.143844 0.298526 0.021255
4970.499000 4970.500000 0.500000 3.930966 15.153765 0.297387 0.021364
4970.751000 4970.750000 0.500000 3.936635 15.166143 0.295937 0.021039
4971.002000 4971.000000 0.500000 3.944305 15.174515 0.293839 0.020921
4971.251000 4971.250000 0.500000 3.953603 15.180657 0.291239 0.020575
4971.502000 4971.500000 0.500000 3.965536 15.183625 0.287839 0.019830
4971.753000 4971.750000 0.500000 3.980470 15.188016 0.283624 0.019582
4972.001000 4972.000000 0.500000 3.997901 15.194151 0.278895 0.018811
4972.251000 4972.250000 0.500000 4.018300 15.199303 0.273336 0.018115
4972.499000 4972.500000 0.500000 4.041874 15.205093 0.267086 0.017643
4972.752000 4972.750000 0.500000 4.068735 15.206802 0.259932 0.016819
4973.001000 4973.000000 0.500000 4.101207 15.209796 0.251785 0.015890
4973.251000 4973.250000 0.500000 4.137553 15.213485 0.242835 0.015062
4973.503000 4973.500000 0.500000 4.176439 15.240401 0.234011 0.014191
4973.752000 4973.750000 0.500000 4.219555 15.254594 0.224318 0.013562
4973.998000 4974.000000 0.500000 4.269100 15.256221 0.213605 0.013063
4974.249000 4974.250000 0.500000 4.320880 15.255556 0.202747 0.011989
4974.500000 4974.500000 0.500000 4.373667 15.258333 0.192287 0.011528
4974.752000 4974.750000 0.500000 4.430360 15.260773 0.181693 0.010739
4975.004000 4975.000000 0.500000 4.487361 15.260535 0.171649 0.010103
4975.250000 4975.250000 0.500000 4.540392 15.262844 0.162880 0.009351
4975.503000 4975.500000 0.500000 4.590566 15.261508 0.154830 0.008882
4975.750000 4975.750000 0.500000 4.640162 15.263562 0.147419 0.008452
4976.000000 4976.000000 0.500000 4.689478 15.260983 0.140288 0.007941
4976.249000 4976.250000 0.500000 4.735317 15.262572 0.134000 0.007698
4976.501000 4976.500000 0.500000 4.779197 15.263782 0.128229 0.007433
4976.752000 4976.750000 0.500000 4.825645 15.263441 0.122435 0.007138
4977.004000 4977.000000 0.500000 4.868178 15.263969 0.117316 0.006527
4977.251000 4977.250000 0.500000 4.908646 15.264348 0.112720 0.006354
4977.501000 4977.500000 0.500000 4.947152 15.267049 0.108440 0.006098
4977.748000 4977.750000 0.500000 4.984606 15.272023 0.104551 0.005894
4978.002000 4978.000000 0.500000 5.017019 15.276521 0.101176 0.006110
4978.250000 4978.250000 0.500000 5.055109 15.278483 0.097445 0.005679
4978.504000 4978.500000 0.500000 5.087544 15.281523 0.094292 0.005391
4978.753000 4978.750000 0.500000 5.122959 15.281745 0.091046 0.005413
4979.003000 4979.000000 0.500000 5.156770 15.283108 0.088025 0.005253
4979.252000 4979.250000 0.500000 5.190977 15.282823 0.085090 0.004946
4979.499000 4979.500000 0.500000 5.226180 15.284031 0.082141 0.005207
4979.750000 4979.750000 0.500000 5.262161 15.281226 0.079227 0.004849
4980.001000 4980.000000 0.500000 5.304562 15.281192 0.075921 0.004687
4980.252000 4980.250000 0.500000 5.342998 15.277423 0.073049 0.004669
4980.500000 4980.500000 0.500000 5.380538 15.274410 0.070338 0.004571
4980.753000 4980.750000 0.500000 5.416946 15.273362 0.067825 0.004527
4981.002000 4981.000000 0.500000 5.452370 15.269296 0.065453 0.004291
4981.251000 4981.250000 0.500000 5.484800 15.270437 0.063371 0.004335
4981.500000 4981.500000 0.500000 5.516995 15.272497 0.061356 0.004122
4981.751000 4981.750000 0.500000 5.548424 15.274355 0.059473 0.003969
4982.002000 4982.000000 0.500000 5.576193 15.273313 0.057829 0.004076
4982.254000 4982.250000 0.500000 5.605832 15.277186 0.056165 0.003887
4982.502000 4982.500000 0.500000 5.630532 15.280125 0.054805 0.003796
4982.753000 4982.750000 0.500000 5.655779 15.281005 0.053438 0.003839
4982.998000 4983.000000 0.500000 5.681414 15.284179 0.052115 0.003698
4983.251000 4983.250000 0.500000 5.700437 15.284270 0.051125 0.004043
4983.500000 4983.500000 0.500000 5.722049 15.284140 0.050025 0.003629
4983.751000 4983.750000 0.500000 5.738747 15.281023 0.049188 0.003751
4984.000000 4984.000000 0.500000 5.756483 15.279425 0.048318 0.003702
4984.253000 4984.250000 0.500000 5.777018 15.278643 0.047334 0.003607
4984.500000 4984.500000 0.500000 5.787636 15.274187 0.046820 0.003306
4984.751000 4984.750000 0.500000 5.798795 15.279772 0.046320 0.003660
4984.998000 4985.000000 0.500000 5.806514 15.283397 0.045973 0.003537
4985.252000 4985.250000 0.500000 5.812920 15.282380 0.045674 0.003754
4985.501000 4985.500000 0.500000 5.819728 15.284197 0.045368 0.003638
4985.753000 4985.750000 0.500000 5.824922 15.284422 0.045134 0.003715
4986.001000 4986.000000 0.500000 5.831698 15.282307 0.044825 0.003467
4986.255000 4986.250000 0.500000 5.829200 15.283974 0.044942 0.003581
4986.501000 4986.500000 0.500000 5.822517 15.285819 0.045248 0.003690
4986.752000 4986.750000 0.500000 5.818580 15.280526 0.045409 0.003659
4986.999000 4987.000000 0.500000 5.814425 15.280064 0.045600 0.003586
4987.253000 4987.250000 0.500000 5.802594 15.277514 0.046135 0.003649
4987.500000 4987.500000 0.500000 5.794258 15.276277 0.046514 0.003880
4987.753000 4987.750000 0.500000 5.787217 15.275990 0.046843 0.003572
4988.004000 4988.000000 0.500000 5.774868 15.278684 0.047436 0.003823
4988.254000 4988.250000 0.500000 5.761008 15.286679 0.048121 0.003867
4988.500000 4988.500000 0.500000 5.748294 15.291621 0.048749 0.003699
4988.752000 4988.750000 0.500000 5.736085 15.299727 0.049380 0.003789
4989.000000 4989.000000 0.500000 5.724113 15.310674 0.050009 0.003869
4989.253000 4989.250000 0.500000 5.711375 15.322403 0.050692 0.003611
4989.501000 4989.500000 0.500000 5.701770 15.335064 0.051220 0.003570
4989.752000 4989.750000 0.500000 5.683032 15.348028 0.052236 0.003957
4990.005000 4990.000000 0.500000 5.666238 15.360585 0.053165 0.003904
4990.252000 4990.250000 0.500000 5.653502 15.367932 0.053869 0.003842
4990.501000 4990.500000 0.500000 5.636516 15.381647 0.054838 0.004109
4990.750000 4990.750000 0.500000 5.622305 15.390915 0.055658 0.004048
4991.003000 4991.000000 0.500000 5.606483 15.437150 0.056718 0.004103
4991.250000 4991.250000 0.500000 5.593787 15.444753 0.057471 0.004022
4991.500000 4991.500000 0.500000 5.583908 15.452303 0.058064 0.004160
4991.751000 4991.750000 0.500000 5.568826 15.461559 0.058980 0.004357
4992.003000 4992.000000 0.500000 5.563464 15.468862 0.059331 0.004099
4992.249000 4992.250000 0.500000 5.548232 15.478342 0.060268 0.004448
4992.502000 4992.500000 0.500000 5.541118 15.486453 0.060742 0.004461
4992.751000 4992.750000 0.500000 5.533105 15.489828 0.061243 0.004252
4993.003000 4993.000000 0.500000 5.527543 15.497743 0.061617 0.004435
4993.252000 4993.250000 0.500000 5.524013 15.500706 0.061845 0.004418
4993.505000 4993.500000 0.500000 5.520938 15.504822 0.062062 0.004387
4993.754000 4993.750000 0.500000 5.513407 15.511668 0.062546 0.004385
4994.003000 4994.000000 0.500000 5.515651 15.513649 0.062418 0.004210
4994.251000 4994.250000 0.500000 5.516449 15.550351 0.062515 0.004256
4994.501000 4994.500000 0.500000 5.517209 15.557099 0.062493 0.004289
4994.751000 4994.750000 0.500000 5.521575 15.560871 0.062235 0.004412
4994.999000 4995.000000 0.500000 5.526873 15.565476 0.061930 0.004231
4995.252000 4995.250000 0.500000 5.532179 15.567771 0.061606 0.004143
4995.502000 4995.500000 0.500000 5.536812 15.569892 0.061330 0.004246
4995.753000 4995.750000 0.500000 5.543769 15.588177 0.060975 0.004257
4995.999000 4996.000000 0.700000 5.552528 21.740900 0.084310 0.005913
4997.093000 4997.080000 0.710000 5.591355 22.122650 0.082513 0.005873
4998.182000 4998.180000 0.730000 5.621150 22.744294 0.082358 0.005723
4999.296000 4999.290000 0.740000 5.629605 23.069574 0.082821 0.005729
5000.437000 5000.430000 0.750000 5.607697 23.421120 0.085950 0.005729
5001.584000 5001.580000 0.760000 5.560337 23.775808 0.091471 0.006105
5002.767000 5002.760000 0.780000 5.499584 24.451978 0.099971 0.006497
5003.956000 5003.950000 0.790000 5.441090 24.821915 0.107601 0.006619
5005.165000 5005.160000 0.800000 5.387426 25.202672 0.115266 0.007287
5006.397000 5006.390000 0.810000 5.346764 25.583902 0.121871 0.007494
5007.647000 5007.640000 0.830000 5.310433 26.273528 0.129793 0.007979
5008.913000 5008.910000 0.840000 5.278634 26.645907 0.135871 0.008442
5010.205000 5010.200000 0.850000 5.246941 27.019808 0.142216 0.008993
5011.516000 5011.510000 0.860000 5.226880 27.395637 0.147123 0.009189
5012.833000 5012.830000 0.880000 5.223018 28.079089 0.151374 0.009383
5014.184000 5014.180000 0.890000 5.223878 28.454697 0.153269 0.009684
5015.545000 5015.540000 0.900000 5.226987 28.820496 0.154756 0.009545
5016.935000 5016.930000 0.910000 5.225652 29.200903 0.157008 0.010075
5018.333000 5018.330000 0.930000 5.217670 29.897774 0.162044 0.010479
5019.754000 5019.750000 0.940000 5.207357 30.304015 0.165949 0.010649
5021.190000 5021.190000 0.950000 5.197149 30.733049 0.170021 0.010777
5022.649000 5022.650000 0.960000 5.191578 31.123197 0.173143 0.011077
5024.129000 5024.130000 0.980000 5.196330 31.842341 0.176311 0.011518
5025.632000 5025.630000 0.990000 5.211448 32.230462 0.175782 0.011307
5027.143000 5027.140000 1.000000 5.225413 32.622684 0.175452 0.011455
5028.685000 5028.680000 1.010000 5.245659 33.024173 0.174048 0.011293
5030.242000 5030.240000 1.030000 5.264913 33.745398 0.174461 0.011475
5031.812000 5031.810000 1.040000 5.287892 34.142783 0.172510 0.010935
5033.401000 5033.400000 1.050000 5.307068 34.537131 0.171187 0.010897
5035.014000 5035.010000 1.060000 5.323939 34.934600 0.170257 0.010605
5036.656000 5036.650000 1.080000 5.337425 35.669514 0.171501 0.010926
5038.305000 5038.300000 1.090000 5.349372 36.082430 0.171433 0.010656
5039.965000 5039.970000 1.100000 5.355518 36.487216 0.172296 0.010800
5041.645000 5041.650000 1.110000 5.355392 36.898463 0.174258 0.011218
5043.357000 5043.360000 1.130000 5.350205 37.638070 0.178672 0.011223
5045.094000 5045.090000 1.140000 5.337834 38.060689 0.182939 0.011249
5046.825000 5046.830000 1.150000 5.324806 38.478841 0.187367 0.011944
5048.598000 5048.600000 1.160000 5.314579 38.896885 0.191349 0.012284
5050.377000 5050.380000 1.180000 5.307390 39.661629 0.196520 0.012913
5052.175000 5052.180000 1.190000 5.300282 40.084555 0.200028 0.013019
5053.995000 5054.000000 1.200000 5.289084 40.522804 0.204493 0.013713
5055.835000 5055.840000 1.210000 5.281611 40.953441 0.208217 0.013943
5057.695000 5057.700000 1.230000 5.270235 41.731604 0.214601 0.014120
5059.572000 5059.580000 1.240000 5.257624 42.173499 0.219620 0.014014
5061.474000 5061.480000 1.250000 5.238590 42.613141 0.226178 0.015264
5063.395000 5063.400000 1.260000 5.223062 43.057899 0.232111 0.015160
5065.326000 5065.330000 1.280000 5.207263 43.857491 0.240191 0.015923
5067.285000 5067.290000 1.290000 5.195619 44.302611 0.245469 0.016328
5069.257000 5069.260000 1.300000 5.188756 44.762048 0.249726 0.016598
5071.255000 5071.260000 1.310000 5.185336 45.218294 0.253134 0.017127
5073.266000 5073.270000 1.330000 5.181033 46.025316 0.258762 0.017014
5075.295000 5075.300000 1.340000 5.178987 46.528785 0.262131 0.017438
5077.347000 5077.350000 1.350000 5.171344 47.041402 0.267051 0.017749
5079.421000 5079.420000 1.360000 5.163913 47.516321 0.271762 0.017704
5081.506000 5081.510000 1.380000 5.151901 48.337725 0.279796 0.017860
5083.607000 5083.610000 1.390000 5.139732 48.807023 0.285975 0.017825
5085.737000 5085.740000 1.400000 5.124447 49.282290 0.293198 0.018296
5087.889000 5087.890000 1.410000 5.109260 49.762765 0.300596 0.018534
5090.054000 5090.050000 1.430000 5.095289 50.603652 0.309983 0.018629
5092.229000 5092.230000 1.440000 5.082565 51.098026 0.317010 0.018924
5094.441000 5094.440000 1.450000 5.072020 51.606435 0.323562 0.019346
5096.663000 5096.660000 1.460000 5.062953 52.101770 0.329644 0.020294
5098.901000 5098.900000 1.480000 5.056789 52.964177 0.337171 0.020877
5101.159000 5101.160000 1.490000 5.052302 53.457471 0.341839 0.022342
5103.442000 5103.440000 1.500000 5.049939 53.973692 0.345955 0.022644
5105.743000 5105.740000 1.510000 5.048769 54.524262 0.349895 0.023231
5108.048000 5108.050000 1.530000 5.051855 55.487658 0.354984 0.023379
5110.391000 5110.390000 1.540000 5.053212 56.008845 0.357828 0.023668
5112.739000 5112.740000 1.550000 5.056344 56.515872 0.359939 0.023580
5115.122000 5115.120000 1.560000 5.055858 57.032862 0.363408 0.024070
5117.515000 5117.510000 1.580000 5.054051 57.928617 0.369784 0.024644
5119.920000 5119.920000 1.590000 5.050405 58.469275 0.374598 0.024833
5122.349000 5122.350000 1.600000 5.047678 59.007088 0.379076 0.025312
5124.800000 5124.800000 1.610000 5.047311 59.540335 0.382642 0.025574
5127.272000 5127.270000 1.630000 5.047147 60.461217 0.388624 0.026105
5129.763000 5129.760000 1.640000 5.045921 61.021203 0.392705 0.026203
5132.272000 5132.270000 1.650000 5.040788 61.582219 0.398356 0.026970
5134.789000 5134.790000 1.660000 5.033446 62.136342 0.404897 0.026913
5137.339000 5137.340000 1.680000 5.022503 63.073052 0.415525 0.027698
5139.900000 5139.900000 1.690000 5.008643 63.661828 0.425258 0.028414
5142.491000 5142.490000 1.700000 4.994873 64.240364 0.435076 0.028352
5145.091000 5145.090000 1.710000 4.982699 64.821528 0.444389 0.029158
5147.708000 5147.710000 1.730000 4.972183 65.921754 0.456704 0.029517
5150.350000 5150.350000 1.740000 4.961051 66.515787 0.465976 0.030285
5153.008000 5153.010000 1.750000 4.949400 67.108460 0.475638 0.031063
5155.691000 5155.690000 1.760000 4.937599 67.703489 0.485556 0.031698
5158.389000 5158.390000 1.780000 4.926937 68.683954 0.497865 0.032640
5161.110000 5161.110000 1.790000 4.913522 69.268431 0.508884 0.034111
5163.840000 5163.840000 1.800000 4.900739 69.869819 0.519911 0.034352
5166.600000 5166.600000 1.810000 4.887352 70.464941 0.531403 0.035448
5169.370000 5169.370000 1.830000 4.874410 71.455182 0.545884 0.036434
5172.172000 5172.170000 1.840000 4.863949 72.053679 0.556250 0.037443
5174.981000 5174.980000 1.850000 4.854617 72.637723 0.566016 0.038612
5177.810000 5177.810000 1.860000 4.845940 73.228888 0.575593 0.039786
5180.663000 5180.660000 1.880000 4.838068 74.240380 0.588157 0.040317
5183.530000 5183.530000 1.890000 4.832213 74.878689 0.596697 0.041490
5186.419000 5186.420000 1.900000 4.828422 75.487564 0.603834 0.041814
5189.322000 5189.320000 1.910000 4.826004 76.093373 0.610155 0.042355
5192.251000 5192.250000 1.930000 4.822439 77.099652 0.620429 0.042858
5195.201000 5195.200000 1.940000 4.820586 77.697168 0.626399 0.043404
5198.161000 5198.160000 1.950000 4.818003 78.272561 0.632672 0.044250
5201.140000 5201.140000 1.960000 4.813043 78.901397 0.640922 0.044497
5204.152000 5204.150000 1.980000 4.805255 79.957786 0.654588 0.045218
5207.170000 5207.170000 1.990000 4.795464 80.593936 0.666282 0.046243
5210.212000 5210.210000 2.000000 4.788429 81.300950 0.676873 0.046825
5213.271000 5213.270000 2.010000 4.782102 82.027386 0.687256 0.047465
5216.353000 5216.350000 2.030000 4.774568 83.083914 0.701373 0.048700
5219.452000 5219.450000 2.040000 4.766288 83.749019 0.712865 0.049342
5222.562000 5222.560000 2.050000 4.758768 84.430488 0.724090 0.050947
5225.700000 5225.700000 2.060000 4.753372 85.105304 0.733826 0.051695
5228.848000 5228.850000 2.080000 4.744429 86.176650 0.749737 0.052600
5232.032000 5232.030000 2.090000 4.734854 86.856490 0.762927 0.053677
5235.219000 5235.220000 2.100000 4.723408 87.556347 0.777925 0.055439
5238.431000 5238.430000 2.110000 4.711728 88.259255 0.793381 0.056527
5241.660000 5241.660000 2.130000 4.700026 89.350397 0.812645 0.058083
5244.921000 5244.920000 2.140000 4.688606 89.985302 0.827815 0.059694
5248.180000 5248.180000 2.150000 4.679366 90.160993 0.837136 0.060701
5251.470000 5251.470000 2.160000 4.670000 91.064761 0.853482 0.062376
5254.781000 5254.780000 2.180000 4.661255 92.621158 0.875698 0.063916
5258.112000 5258.110000 2.190000 4.654345 93.448975 0.889650 0.065259
5261.452000 5261.450000 2.200000 4.647411 94.153830 0.902599 0.066635
5264.821000 5264.820000 2.210000 4.641927 94.937168 0.915111 0.067602
5268.200000 5268.200000 2.230000 4.635942 96.145685 0.932322 0.069171
5271.603000 5271.600000 2.240000 4.629186 96.898193 0.945990 0.070526
5275.028000 5275.030000 2.250000 4.620619 97.751874 0.962530 0.071504
5278.472000 5278.470000 2.260000 4.611034 97.308030 0.967390 0.071962
5281.931000 5281.930000 2.280000 4.600420 99.530063 1.000042 0.074711
5285.404000 5285.400000 2.290000 4.590163 100.371388 1.018897 0.076070
5288.902000 5288.900000 2.300000 4.580649 101.112418 1.036229 0.077389
5292.421000 5292.420000 2.310000 4.570252 101.849442 1.054688 0.079296
5295.963000 5295.960000 2.330000 4.561108 103.289800 1.079431 0.081353
5299.509000 5299.510000 2.340000 4.551835 103.976615 1.096728 0.082812
5303.093000 5303.090000 2.350000 4.541406 104.712173 1.116066 0.084965
5306.678000 5306.680000 2.360000 4.531675 105.496092 1.135414 0.086479
5310.290000 5310.290000 2.380000 4.522492 106.749848 1.159506 0.088772
5313.920000 5313.920000 2.390000 4.513479 107.506084 1.178297 0.090375
5317.569000 5317.570000 2.400000 4.505356 108.255300 1.196185 0.092290
5321.244000 5321.240000 2.410000 4.497106 108.818306 1.212370 0.094016
5324.932000 5324.930000 2.430000 4.489384 109.893557 1.233840 0.095777
5328.641000 5328.640000 2.440000 4.480493 110.458556 1.251261 0.097861
5332.361000 5332.360000 2.450000 4.471735 111.020937 1.268694 0.099574
5336.110000 5336.110000 2.460000 4.462206 111.828414 1.290158 0.102045
5339.871000 5339.870000 2.480000 4.453105 113.028341 1.315921 0.104770
5343.662000 5343.660000 2.490000 4.444863 113.759470 1.335394 0.106595
5347.458000 5347.460000 2.500000 4.435631 114.355936 1.354842 0.108349
5351.280000 5351.280000 2.510000 4.427304 114.841572 1.371976 0.110604
5355.120000 5355.120000 2.530000 4.418213 115.189436 1.388700 0.112671
5358.979000 5358.980000 2.540000 4.411690 116.901333 1.418560 0.115271
5362.861000 5362.860000 2.550000 4.403828 117.687334 1.439372 0.117473
5366.761000 5366.760000 2.560000 4.395972 118.390764 1.459396 0.118973
5370.680000 5370.680000 2.580000 4.386997 119.400082 1.485112 0.121761
5374.610000 5374.610000 2.590000 4.377099 120.020701 1.507672 0.123869
5378.571000 5378.570000 2.600000 4.367502 120.606176 1.529639 0.126245
5382.538000 5382.540000 2.610000 4.357170 121.233358 1.553560 0.129135
5386.542000 5386.540000 2.630000 4.347175 122.256072 1.582403 0.131751
5390.552000 5390.550000 2.640000 4.337066 122.740061 1.604810 0.134637
5394.579000 5394.580000 2.650000 4.328239 123.335192 1.626890 0.136833
5398.629000 5398.630000 2.660000 4.319260 123.561903 1.644576 0.139087
5402.700000 5402.700000 2.680000 4.309722 124.710196 1.675767 0.142294
5406.789000 5406.790000 2.690000 4.300039 125.455677 1.702195 0.145183
5410.898000 5410.900000 2.700000 4.290446 125.968995 1.725633 0.148232
5415.020000 5415.020000 2.710000 4.280417 126.565139 1.751274 0.150932
5419.170000 5419.170000 2.730000 4.270044 126.951240 1.774931 0.153803
5423.330000 5423.330000 2.740000 4.259644 127.832294 1.805933 0.157381
5427.518000 5427.520000 2.750000 4.249309 128.379453 1.832500 0.160381
5431.722000 5431.720000 2.760000 4.239865 128.904088 1.857456 0.163455
5435.940000 5435.940000 2.780000 4.230441 129.938164 1.890082 0.167400
5440.178000 5440.180000 2.790000 4.221067 130.519545 1.916417 0.170090
5444.442000 5444.440000 2.800000 4.211869 131.126835 1.943128 0.173309
5448.723000 5448.720000 2.810000 4.202359 131.973972 1.974366 0.177276
5453.020000 5453.020000 2.830000 4.192897 133.095458 2.010069 0.181261
5457.340000 5457.340000 2.840000 4.184442 133.744597 2.037028 0.184657
5461.672000 5461.670000 2.850000 4.177072 134.442948 2.062810 0.187591
5466.032000 5466.030000 2.860000 4.168865 135.148372 2.090722 0.191053
5470.399000 5470.400000 2.880000 4.160632 136.355580 2.126829 0.195031
5474.799000 5474.800000 2.890000 4.152024 137.131497 2.157430 0.199117
5479.211000 5479.210000 2.900000 4.142472 137.894486 2.190251 0.203025
5483.643000 5483.640000 2.910000 4.132882 138.658315 2.223608 0.206970
5488.090000 5488.090000 2.930000 4.123815 139.912500 2.264152 0.211779
5492.558000 5492.560000 2.940000 4.113707 140.723340 2.300408 0.216172
5497.049000 5497.050000 2.950000 4.103603 141.545251 2.337349 0.220871
5501.561000 5501.560000 2.960000 4.093763 142.333574 2.373603 0.225128
5506.079000 5506.080000 2.980000 4.084068 143.615521 2.418310 0.230546
5510.630000 5510.630000 2.990000 4.074644 144.433791 2.455121 0.235092
5515.189000 5515.190000 3.000000 4.065341 145.519319 2.496694 0.240523
5519.781000 5519.780000 3.010000 4.056006 146.539793 2.537791 0.245948
5524.384000 5524.380000 3.030000 4.046741 147.945572 2.585980 0.251578
5529.004000 5529.000000 3.040000 4.037923 148.890544 2.625555 0.256420
5533.642000 5533.640000 3.050000 4.028935 149.854006 2.666399 0.262135
5538.300000 5538.300000 3.060000 4.019888 150.738583 2.706508 0.267584
5542.980000 5542.980000 3.080000 4.010835 152.153259 2.756755 0.273966
5547.679000 5547.680000 3.090000 4.001741 153.113760 2.799492 0.279602
5552.400000 5552.400000 3.100000 3.992740 154.111919 2.843223 0.285379
5557.131000 5557.130000 3.110000 3.983109 155.064846 2.888497 0.291040
5561.889000 5561.890000 3.130000 3.973900 156.516139 2.942501 0.297910
5566.657000 5566.660000 3.140000 3.964896 157.834601 2.994118 0.304669
5571.459000 5571.460000 3.150000 3.955449 158.797382 3.040978 0.311296
5576.268000 5576.270000 3.160000 3.945709 159.749434 3.089145 0.317230
5581.100000 5581.100000 3.180000 3.936179 161.229795 3.147638 0.325399
5585.951000 5585.950000 3.190000 3.926682 162.227791 3.197345 0.332093
5590.822000 5590.820000 3.200000 3.916695 163.590823 3.256567 0.339779
5595.712000 5595.710000 3.210000 3.907021 164.484275 3.306178 0.346607
5600.616000 5600.620000 3.230000 3.896971 165.950102 3.369321 0.355116
5605.540000 5605.540000 3.240000 3.887465 166.869433 3.420361 0.362645
5610.488000 5610.490000 3.250000 3.878117 167.815617 3.472058 0.369530
5615.448000 5615.450000 3.260000 3.868704 168.730516 3.523996 0.377303
5620.441000 5620.440000 3.280000 3.859654 170.134377 3.585626 0.386194
5625.440000 5625.440000 3.290000 3.850991 170.309932 3.620551 0.391880
5630.461000 5630.460000 3.300000 3.843320 170.928444 3.661681 0.398796
5635.500000 5635.500000 3.310000 3.833742 171.710599 3.713842 0.406583
5640.560000 5640.560000 3.330000 3.824625 173.188392 3.780115 0.416092
5645.641000 5645.640000 3.340000 3.815657 173.959600 3.831150 0.423690
5650.741000 5650.740000 3.350000 3.806944 174.806017 3.883479 0.431673
5655.859000 5655.860000 3.360000 3.797286 175.699424 3.941207 0.441019
5660.988000 5660.990000 3.380000 3.788413 177.272677 4.011923 0.451126
5666.148000 5666.150000 3.390000 3.778429 178.464769 4.079438 0.460795
5671.319000 5671.320000 3.400000 3.769125 179.650644 4.144939 0.470933
5676.519000 5676.520000 3.410000 3.760177 181.174492 4.217660 0.481635
5681.727000 5681.730000 3.430000 3.750715 183.100294 4.303018 0.494527
5686.960000 5686.960000 3.440000 3.741555 184.192594 4.368530 0.504714
5692.209000 5692.210000 3.450000 3.732096 185.130882 4.432508 0.514594
5697.477000 5697.480000 3.460000 3.722335 186.121378 4.499939 0.525507
5702.770000 5702.770000 3.480000 3.712760 187.605526 4.579459 0.537647
5708.080000 5708.080000 3.490000 3.703038 188.542559 4.647289 0.549043
