# XDI/1.0 BlueSky/1.5.0
# Beamline.name: 6BM
# Beamline.xray_source: NSLS-II three-pole wiggler
# Beamline.collimation: paraboloid mirror, 5 nm Rh on 30 nm Pt
# Beamline.focusing: not in use
# Beamline.harmonic_rejection: flat mirror, Si stripe, pitch = 7.0 mrad relative to beam
# Detector.i0: 10 cm N2
# Detector.i1: 25 cm N2
# Detector.i2: 25 cm N2
# Element.symbol: Ti
# Element.edge: K
# Facility.name: NSLS-II
# Facility.energy: 3.0
# Facility.current: 220.8
# Facility.mode: top-off
# Facility.gup: 301027
# Facility.saf: 304156
# Mono.name: Si(111)
# Mono.d_spacing: 3.1352584
# Mono.encoder_resolution: 0.0000050 deg/ct
# Mono.angle_offset: 16.0571090 deg
# Mono.scan_mode: pseudo channel cut
# Mono.scan_type: step
# Mono.direction: forward in energy
# Sample.name: Ce2Ti2O7
# Sample.prep: Powder in polyethylene glycol pellet
# Sample.x_position: -113.290 mm
# Sample.y_position: 117.505 mm
# Sample.wheel_position: 270.000 mm
# Scan.experimenters: Bruce Ravel, Martin Stennett
# Scan.edge_energy: 4966.0
# Scan.start_time: 2019-05-30T17:18:38
# Scan.end_time: 2019-05-30T18:02:14
# Scan.transient_id: 9843
# Scan.uid: 2b4b57ed-a9de-46fb-9814-9095f5ba7e96
# Scan.plot_hint: (DTC1 + DTC2 + DTC3 + DTC4) / I0  --  ($8+$9+$10+$11) / $5
# Scan.sequence: merge of 3 scans
# Column.1: energy eV
# Column.2: requested_energy eV
# Column.3: measurement_time seconds
# Column.4: mutrans
# Column.5: i0
# Column.6: itrans
# Column.7: irefer
# /////
#  sample disk prepared by Martin
# -----
# energy   requested_energy   measurement_time   mutrans   i0   itrans   irefer
4765.991000 4766.000000 0.500000 79.857753 10.409650 0.036491 0.005320
4776.008000 4776.000000 0.500000 75.567160 10.630632 0.037871 0.005479
4786.008000 4786.000000 0.500000 70.358400 10.880285 0.040218 0.005728
4796.008000 4796.000000 0.500000 69.923721 11.142097 0.042863 0.006218
4806.009000 4806.000000 0.500000 62.936946 11.436275 0.045457 0.006344
4816.357000 4816.000000 0.500000 60.434908 11.700710 0.048461 0.006708
4825.999000 4826.000000 0.500000 57.387202 11.951143 0.051585 0.007257
4836.006000 4836.000000 0.500000 55.044478 12.216400 0.054115 0.007081
4846.007000 4846.000000 0.500000 49.621538 12.481667 0.057725 0.007741
4856.010000 4856.000000 0.500000 47.841504 12.744301 0.061244 0.008462
4866.002000 4866.000000 0.500000 44.081515 13.011148 0.064916 0.008837
4876.001000 4876.000000 0.500000 39.736651 13.276958 0.068679 0.009482
4885.999000 4886.000000 0.500000 37.773616 13.543762 0.072737 0.009957
4896.000000 4896.000000 0.500000 35.692676 13.807860 0.076837 0.010444
4906.001000 4906.000000 0.500000 31.309166 14.077053 0.081128 0.011229
4916.002000 4916.000000 0.500000 31.115486 14.343311 0.085532 0.011682
4926.001000 4926.000000 0.500000 28.324464 14.614345 0.090252 0.012610
4936.000000 4936.000000 0.500000 27.842158 14.872830 0.095084 0.013339
4937.993000 4938.000000 0.500000 27.516936 14.922270 0.096164 0.013566
4939.994000 4940.000000 0.500000 25.611170 14.971845 0.096584 0.013285
4941.994000 4942.000000 0.500000 27.933022 15.019493 0.097928 0.013577
4943.996000 4944.000000 0.500000 25.313235 15.062762 0.098736 0.013597
4946.006000 4946.000000 0.500000 26.154468 15.103704 0.099624 0.013766
4948.004000 4948.000000 0.500000 25.937414 15.147072 0.100697 0.014010
4950.000000 4950.000000 0.500000 25.486458 15.197308 0.101540 0.013920
4952.001000 4952.000000 0.500000 26.669938 15.241819 0.102494 0.014177
4954.004000 4954.000000 0.500000 26.379379 15.288415 0.103679 0.014513
4956.005000 4956.000000 0.500000 27.858100 15.331272 0.104582 0.014457
4956.246000 4956.250000 0.500000 26.523869 15.336127 0.104743 0.014552
4956.495000 4956.500000 0.500000 28.633528 15.340739 0.104919 0.014551
4956.745000 4956.750000 0.500000 26.202522 15.346439 0.104760 0.014340
4956.994000 4957.000000 0.500000 26.631262 15.346947 0.104944 0.014469
4957.243000 4957.250000 0.500000 28.066438 15.349071 0.105013 0.014438
4957.494000 4957.500000 0.500000 26.952796 15.352349 0.105127 0.014491
4957.744000 4957.750000 0.500000 28.281023 15.355559 0.105455 0.014709
4957.996000 4958.000000 0.500000 27.137709 15.362839 0.105520 0.014645
4958.243000 4958.250000 0.500000 27.521591 15.367912 0.105479 0.014505
4958.495000 4958.500000 0.500000 27.038372 15.371196 0.105725 0.014638
4958.747000 4958.750000 0.500000 27.284165 15.373464 0.105863 0.014679
4958.996000 4959.000000 0.500000 28.167583 15.383811 0.105867 0.014509
4959.246000 4959.250000 0.500000 29.168776 15.385580 0.106049 0.014743
4959.496000 4959.500000 0.500000 29.319938 15.391977 0.106242 0.014929
4959.746000 4959.750000 0.500000 29.772631 15.393331 0.106247 0.014662
4959.995000 4960.000000 0.500000 29.689157 15.396735 0.106449 0.014641
4960.247000 4960.250000 0.500000 29.545853 15.404288 0.106409 0.014744
4960.498000 4960.500000 0.500000 28.393076 15.411027 0.106721 0.014717
4960.749000 4960.750000 0.500000 29.059272 15.415345 0.106855 0.014690
4960.998000 4961.000000 0.500000 29.990774 15.420455 0.106854 0.014750
4961.247000 4961.250000 0.500000 30.914750 15.424580 0.106946 0.014763
4961.496000 4961.500000 0.500000 30.525220 15.429502 0.107017 0.014668
4961.745000 4961.750000 0.500000 32.100581 15.434068 0.107041 0.014902
4961.995000 4962.000000 0.500000 31.499113 15.441095 0.107183 0.014669
4962.248000 4962.250000 0.500000 30.191899 15.445287 0.107234 0.014750
4962.497000 4962.500000 0.500000 30.898049 15.449767 0.107466 0.014827
4962.746000 4962.750000 0.500000 31.839440 15.453440 0.107618 0.014707
4963.002000 4963.000000 0.500000 32.174837 15.459683 0.107818 0.014733
4963.249000 4963.250000 0.500000 33.901338 15.467932 0.107763 0.014603
4963.497000 4963.500000 0.500000 32.472834 15.474373 0.107730 0.014334
4963.751000 4963.750000 0.500000 33.959421 15.479870 0.108026 0.014357
4963.995000 4964.000000 0.500000 34.097982 15.481577 0.108476 0.014275
4964.248000 4964.250000 0.500000 36.277293 15.487566 0.108215 0.013776
4964.500000 4964.500000 0.500000 36.310582 15.493500 0.108343 0.013215
4964.750000 4964.750000 0.500000 36.372768 15.499303 0.108673 0.012662
4964.998000 4965.000000 0.500000 38.570334 15.504699 0.108780 0.011936
4965.247000 4965.250000 0.500000 39.834474 15.509364 0.108547 0.010966
4965.498000 4965.500000 0.500000 41.127098 15.512882 0.108659 0.010520
4965.748000 4965.750000 0.500000 41.832385 15.518075 0.108893 0.010602
4965.996000 4966.000000 0.500000 45.135035 15.525543 0.108856 0.010835
4966.248000 4966.250000 0.500000 49.056956 15.529001 0.108864 0.011008
4966.499000 4966.500000 0.500000 54.537202 15.534162 0.108504 0.011279
4966.750000 4966.750000 0.500000 64.580062 15.537552 0.108775 0.011836
4967.002000 4967.000000 0.500000 78.402399 15.541129 0.108160 0.011783
4967.248000 4967.250000 0.500000 92.888887 15.542500 0.107961 0.011736
4967.500000 4967.500000 0.500000 101.708374 15.545852 0.107855 0.011887
4967.748000 4967.750000 0.500000 103.477270 15.553732 0.107809 0.011524
4967.998000 4968.000000 0.500000 106.900403 15.561687 0.107768 0.011669
4968.248000 4968.250000 0.500000 121.660919 15.567249 0.107332 0.011356
4968.500000 4968.500000 0.500000 148.882245 15.570778 0.106630 0.011243
4968.751000 4968.750000 0.500000 204.425481 15.572836 0.104874 0.010978
4969.000000 4969.000000 0.500000 262.624415 15.576868 0.102898 0.010488
4969.252000 4969.250000 0.500000 305.902244 15.578679 0.101797 0.010209
4969.500000 4969.500000 0.500000 301.077847 15.581875 0.101916 0.010393
4969.748000 4969.750000 0.500000 271.247881 15.582082 0.102950 0.010228
4969.997000 4970.000000 0.500000 227.936416 15.581375 0.104450 0.010266
4970.253000 4970.250000 0.500000 196.762921 15.590135 0.105937 0.010535
4970.501000 4970.500000 0.500000 174.997965 15.613566 0.106702 0.010484
4970.751000 4970.750000 0.500000 165.890857 15.634103 0.106993 0.010140
4971.003000 4971.000000 0.500000 157.972620 15.645545 0.107701 0.010352
4971.250000 4971.250000 0.500000 151.596963 15.656228 0.107996 0.010282
4971.500000 4971.500000 0.500000 151.725241 15.667665 0.108295 0.010475
4971.747000 4971.750000 0.500000 158.280884 15.674512 0.107979 0.010096
4971.998000 4972.000000 0.500000 177.816221 15.677353 0.107661 0.010130
4972.249000 4972.250000 0.500000 191.239117 15.681964 0.107277 0.009752
4972.502000 4972.500000 0.500000 208.788134 15.685118 0.106783 0.009678
4972.754000 4972.750000 0.500000 226.343188 15.691815 0.106254 0.009454
4973.001000 4973.000000 0.500000 231.470321 15.697235 0.106246 0.009018
4973.254000 4973.250000 0.500000 225.140902 15.701378 0.106455 0.009092
4973.502000 4973.500000 0.500000 223.715409 15.702909 0.106595 0.008818
4973.749000 4973.750000 0.500000 222.258579 15.741076 0.106990 0.008652
4974.000000 4974.000000 0.500000 219.690521 15.743960 0.107446 0.008699
4974.250000 4974.250000 0.500000 210.526744 15.748722 0.107704 0.008318
4974.500000 4974.500000 0.500000 206.549375 15.752085 0.108064 0.008408
4974.752000 4974.750000 0.500000 205.299310 15.754002 0.108345 0.008339
4975.002000 4975.000000 0.500000 206.225090 15.755479 0.108096 0.008031
4975.251000 4975.250000 0.500000 202.745562 15.756219 0.108249 0.007923
4975.500000 4975.500000 0.500000 210.315385 15.757606 0.108493 0.008051
4975.749000 4975.750000 0.500000 210.959511 15.759012 0.108447 0.007876
4975.999000 4976.000000 0.500000 218.032854 15.758150 0.108493 0.007960
4976.250000 4976.250000 0.500000 218.024078 15.755656 0.108240 0.007740
4976.502000 4976.500000 0.500000 221.819697 15.757925 0.108218 0.007404
4976.752000 4976.750000 0.500000 232.696549 15.758166 0.108118 0.007503
4977.001000 4977.000000 0.500000 241.561363 15.794721 0.108245 0.007416
4977.251000 4977.250000 0.500000 260.851324 15.796619 0.107795 0.007227
4977.501000 4977.500000 0.500000 273.995275 15.802280 0.107124 0.007140
4977.750000 4977.750000 0.500000 295.671019 15.803797 0.106728 0.006909
4977.998000 4978.000000 0.500000 326.189410 15.807179 0.105816 0.006908
4978.250000 4978.250000 0.500000 348.282655 15.808895 0.105090 0.006873
4978.501000 4978.500000 0.500000 378.463755 15.812832 0.104150 0.006824
4978.753000 4978.750000 0.500000 402.224910 15.817014 0.103476 0.006606
4979.002000 4979.000000 0.500000 442.562391 15.819574 0.102348 0.006545
4979.253000 4979.250000 0.500000 481.080175 15.817663 0.101456 0.006653
4979.500000 4979.500000 0.500000 517.720707 15.817395 0.100121 0.006434
4979.749000 4979.750000 0.500000 566.637172 15.812936 0.098853 0.006387
4979.999000 4980.000000 0.500000 623.200237 15.812752 0.097048 0.006265
4980.249000 4980.250000 0.500000 678.620738 15.810809 0.095596 0.006337
4980.501000 4980.500000 0.500000 734.902750 15.808326 0.093814 0.006078
4980.753000 4980.750000 0.500000 797.347248 15.808272 0.092110 0.006021
4981.003000 4981.000000 0.500000 861.863094 15.803725 0.090432 0.005972
4981.253000 4981.250000 0.500000 914.283867 15.804410 0.088778 0.005853
4981.497000 4981.500000 0.500000 976.973220 15.805579 0.087242 0.005807
4981.749000 4981.750000 0.500000 1024.032759 15.808444 0.085862 0.005651
4982.000000 4982.000000 0.500000 1082.763552 15.814040 0.084537 0.005741
4982.251000 4982.250000 0.500000 1130.045231 15.817409 0.082864 0.005382
4982.505000 4982.500000 0.500000 1171.050425 15.816887 0.081880 0.005468
4982.750000 4982.750000 0.500000 1225.389440 15.820698 0.080608 0.005341
4983.002000 4983.000000 0.500000 1280.061972 15.822216 0.079363 0.005324
4983.253000 4983.250000 0.500000 1328.154391 15.827128 0.078607 0.005511
4983.498000 4983.500000 0.500000 1356.291549 15.827938 0.077728 0.005337
4983.751000 4983.750000 0.500000 1384.470020 15.827563 0.076861 0.005124
4983.998000 4984.000000 0.500000 1399.206537 15.824855 0.076683 0.005209
4984.251000 4984.250000 0.500000 1407.149285 15.823244 0.076552 0.005251
4984.503000 4984.500000 0.500000 1407.276779 15.823778 0.076627 0.005317
4984.751000 4984.750000 0.500000 1389.564016 15.826826 0.076883 0.005233
4985.001000 4985.000000 0.500000 1378.178251 15.831161 0.077489 0.005362
4985.251000 4985.250000 0.500000 1361.650656 15.835677 0.077845 0.005177
4985.500000 4985.500000 0.500000 1333.092905 15.835303 0.078621 0.005398
4985.747000 4985.750000 0.500000 1312.896679 15.839188 0.079463 0.005598
4986.002000 4986.000000 0.500000 1287.033705 15.840059 0.080092 0.005580
4986.249000 4986.250000 0.500000 1269.766358 15.837319 0.080735 0.005571
4986.504000 4986.500000 0.500000 1251.671429 15.838818 0.081553 0.005594
4986.752000 4986.750000 0.500000 1225.356645 15.839934 0.082218 0.005725
4987.003000 4987.000000 0.500000 1201.948529 15.839727 0.082839 0.005722
4987.250000 4987.250000 0.500000 1187.768398 15.835866 0.083176 0.005802
4987.501000 4987.500000 0.500000 1183.252700 15.831454 0.083481 0.005972
4987.754000 4987.750000 0.500000 1164.775526 15.833340 0.083862 0.005714
4988.001000 4988.000000 0.500000 1157.493920 15.836951 0.084133 0.005701
4988.255000 4988.250000 0.500000 1143.779732 15.845003 0.084742 0.005877
4988.500000 4988.500000 0.500000 1134.375645 15.852756 0.084912 0.005880
4988.750000 4988.750000 0.500000 1137.283747 15.863948 0.085226 0.005704
4989.002000 4989.000000 0.500000 1125.241438 15.875878 0.085343 0.005744
4989.252000 4989.250000 0.500000 1123.952238 15.889377 0.085952 0.006015
4989.501000 4989.500000 0.500000 1122.287394 15.900652 0.085845 0.005802
4989.748000 4989.750000 0.500000 1117.433779 15.916788 0.085927 0.005806
4990.003000 4990.000000 0.500000 1123.540598 15.934166 0.086466 0.005939
4990.251000 4990.250000 0.500000 1123.617757 15.945418 0.086277 0.005819
4990.503000 4990.500000 0.500000 1122.666752 15.957597 0.086455 0.005844
4990.751000 4990.750000 0.500000 1131.028703 15.971960 0.086281 0.005873
4991.001000 4991.000000 0.500000 1133.432612 15.984353 0.086348 0.005905
4991.252000 4991.250000 0.500000 1144.530588 15.999146 0.086286 0.005804
4991.500000 4991.500000 0.500000 1162.363747 16.009080 0.086067 0.005989
4991.751000 4991.750000 0.500000 1166.691901 16.019437 0.085873 0.005766
4992.001000 4992.000000 0.500000 1182.164865 16.030360 0.085635 0.005868
4992.253000 4992.250000 0.500000 1191.574918 16.040083 0.085644 0.006015
4992.502000 4992.500000 0.500000 1219.792386 16.049461 0.085064 0.005768
4992.751000 4992.750000 0.500000 1222.994029 16.060217 0.085099 0.005758
4993.002000 4993.000000 0.500000 1249.285013 16.066699 0.084857 0.005959
4993.250000 4993.250000 0.500000 1261.066652 16.072095 0.084383 0.005897
4993.501000 4993.500000 0.500000 1268.980742 16.078689 0.084243 0.006051
4993.752000 4993.750000 0.500000 1279.521551 16.081949 0.084111 0.005964
4994.002000 4994.000000 0.500000 1293.366729 16.088981 0.083705 0.005912
4994.250000 4994.250000 0.500000 1312.749716 16.096286 0.083426 0.005756
4994.501000 4994.500000 0.500000 1324.178603 16.099829 0.083096 0.005759
4994.751000 4994.750000 0.500000 1334.984148 16.106865 0.083128 0.005754
4994.998000 4995.000000 0.500000 1340.036883 16.111381 0.082806 0.005670
4995.248000 4995.250000 0.500000 1356.897760 16.115939 0.082513 0.005618
4995.498000 4995.500000 0.500000 1354.799211 16.117670 0.082660 0.005663
4995.751000 4995.750000 0.500000 1368.287638 16.174062 0.082736 0.005598
4996.002000 4996.000000 0.700000 1367.896559 22.579885 0.115832 0.008128
4997.090000 4997.080000 0.710000 1372.689947 22.915209 0.117390 0.007693
4998.191000 4998.180000 0.730000 1368.351580 23.572456 0.121890 0.007880
4999.290000 4999.290000 0.740000 1333.714215 23.909717 0.125071 0.008118
5000.434000 5000.430000 0.750000 1306.401884 24.273951 0.128783 0.008337
5001.589000 5001.580000 0.760000 1272.670922 24.652477 0.132821 0.008798
5002.767000 5002.760000 0.780000 1243.950148 25.361722 0.138171 0.008732
5003.955000 5003.950000 0.790000 1226.479297 25.751394 0.142130 0.009076
5005.167000 5005.160000 0.800000 1198.519661 26.158224 0.145919 0.009346
5006.394000 5006.390000 0.810000 1184.457944 26.626366 0.150175 0.009666
5007.644000 5007.640000 0.830000 1170.874667 27.355560 0.155678 0.010328
5008.917000 5008.910000 0.840000 1149.588224 27.746504 0.159143 0.010666
5010.203000 5010.200000 0.850000 1122.825451 28.144358 0.163861 0.010948
5011.514000 5011.510000 0.860000 1088.058244 28.538097 0.168811 0.011440
5012.836000 5012.830000 0.880000 1056.326654 29.259796 0.175487 0.011896
5014.184000 5014.180000 0.890000 1039.604174 29.650553 0.179777 0.012406
5015.544000 5015.540000 0.900000 1035.543833 30.040059 0.183385 0.012485
5016.934000 5016.930000 0.910000 1030.240081 30.493285 0.187257 0.013110
5018.336000 5018.330000 0.930000 1031.477502 31.237537 0.192202 0.013487
5019.755000 5019.750000 0.940000 1042.513233 31.642740 0.195953 0.013918
5021.195000 5021.190000 0.950000 1048.306522 32.050290 0.199175 0.014103
5022.655000 5022.650000 0.960000 1041.207516 32.452335 0.202854 0.014353
5024.136000 5024.130000 0.980000 1050.072803 33.198934 0.207844 0.014599
5025.637000 5025.630000 0.990000 1061.652273 33.609893 0.211015 0.014889
5027.144000 5027.140000 1.000000 1059.566135 34.100456 0.214889 0.014858
5028.684000 5028.680000 1.010000 1059.079109 34.514071 0.218333 0.014994
5030.247000 5030.240000 1.030000 1052.934924 35.268387 0.224874 0.015194
5031.816000 5031.810000 1.040000 1060.876994 35.678478 0.229067 0.015477
5033.408000 5033.400000 1.050000 1057.413231 36.090104 0.232605 0.015335
5035.017000 5035.010000 1.060000 1071.248537 36.507026 0.236332 0.015338
5036.655000 5036.650000 1.080000 1083.699144 37.274353 0.241581 0.015649
5038.307000 5038.300000 1.090000 1087.000605 37.699818 0.244667 0.015757
5039.977000 5039.970000 1.100000 1104.247878 38.114638 0.248195 0.015555
5041.658000 5041.650000 1.110000 1107.177354 38.539469 0.252498 0.016253
5043.358000 5043.360000 1.130000 1105.350001 39.303425 0.258829 0.016776
5045.086000 5045.090000 1.140000 1107.598349 39.736726 0.262783 0.016677
5046.826000 5046.830000 1.150000 1114.509975 40.155174 0.267042 0.017409
5048.597000 5048.600000 1.160000 1122.085574 40.579350 0.271058 0.018165
5050.376000 5050.380000 1.180000 1130.667150 41.363816 0.276785 0.018547
5052.172000 5052.180000 1.190000 1139.563833 41.789686 0.280901 0.019376
5053.995000 5054.000000 1.200000 1147.094460 42.228943 0.284274 0.019643
5055.836000 5055.840000 1.210000 1167.015677 42.660448 0.288182 0.020207
5057.697000 5057.700000 1.230000 1175.846876 43.464438 0.294064 0.020343
5059.574000 5059.580000 1.240000 1186.166909 43.908180 0.298495 0.021058
5061.478000 5061.480000 1.250000 1189.148844 44.344783 0.303407 0.021303
5063.396000 5063.400000 1.260000 1194.328526 44.789547 0.307929 0.021666
5065.327000 5065.330000 1.280000 1196.188741 45.595996 0.315788 0.022746
5067.286000 5067.290000 1.290000 1196.707866 46.037675 0.320435 0.022831
5069.259000 5069.260000 1.300000 1191.002642 46.493912 0.326155 0.023091
5071.259000 5071.260000 1.310000 1189.565668 46.936656 0.331538 0.023791
5073.267000 5073.270000 1.330000 1193.404828 47.745254 0.339828 0.024568
5075.298000 5075.300000 1.340000 1188.879739 48.190602 0.345563 0.024888
5077.348000 5077.350000 1.350000 1188.662058 48.631966 0.351945 0.025168
5079.414000 5079.420000 1.360000 1181.987085 49.069023 0.358027 0.024862
5081.505000 5081.510000 1.380000 1165.587000 49.874108 0.367888 0.025266
5083.609000 5083.610000 1.390000 1158.867313 50.308610 0.374623 0.025450
5085.735000 5085.740000 1.400000 1149.136553 50.747848 0.381443 0.025441
5087.887000 5087.890000 1.410000 1147.252976 51.182388 0.388025 0.025651
5090.045000 5090.050000 1.430000 1140.078583 51.983426 0.396937 0.025873
5092.230000 5092.230000 1.440000 1147.318536 52.421735 0.403294 0.026512
5094.437000 5094.440000 1.450000 1149.057388 52.866984 0.409446 0.027256
5096.656000 5096.660000 1.460000 1149.447612 53.308667 0.415446 0.027860
5098.894000 5098.900000 1.480000 1147.669701 54.116373 0.424824 0.029347
5101.160000 5101.160000 1.490000 1157.851231 54.552306 0.431554 0.030708
5103.439000 5103.440000 1.500000 1155.007158 55.008362 0.438116 0.031340
5105.737000 5105.740000 1.510000 1154.362169 55.448526 0.444564 0.032392
5108.054000 5108.050000 1.530000 1159.243996 56.255954 0.454175 0.033287
5110.394000 5110.390000 1.540000 1164.328343 56.712577 0.460933 0.034111
5112.740000 5112.740000 1.550000 1162.898407 57.165209 0.467726 0.034384
5115.120000 5115.120000 1.560000 1167.932408 57.614685 0.474584 0.034767
5117.507000 5117.510000 1.580000 1172.101063 58.438133 0.484880 0.035654
5119.921000 5119.920000 1.590000 1171.105344 58.906594 0.492141 0.035779
5122.350000 5122.350000 1.600000 1174.483713 59.358980 0.500165 0.036547
5124.802000 5124.800000 1.610000 1174.307670 59.820075 0.507398 0.037159
5127.272000 5127.270000 1.630000 1181.743205 60.661424 0.518891 0.038206
5129.761000 5129.760000 1.640000 1179.570271 61.129326 0.526789 0.038836
5132.269000 5132.270000 1.650000 1181.930388 61.685278 0.535600 0.039695
5134.791000 5134.790000 1.660000 1183.733448 62.237958 0.543998 0.040143
5137.343000 5137.340000 1.680000 1191.967026 63.080823 0.555517 0.040981
5139.901000 5139.900000 1.690000 1196.933546 63.624836 0.564067 0.041661
5142.490000 5142.490000 1.700000 1206.686793 64.353117 0.574427 0.041972
5145.090000 5145.090000 1.710000 1207.089539 64.836701 0.583192 0.042423
5147.710000 5147.710000 1.730000 1212.146932 65.713358 0.595084 0.042680
5150.352000 5150.350000 1.740000 1216.046777 66.212794 0.604177 0.043457
5153.011000 5153.010000 1.750000 1218.486392 66.717206 0.613491 0.044308
5155.691000 5155.690000 1.760000 1219.820591 67.236324 0.623532 0.045867
5158.393000 5158.390000 1.780000 1218.973452 68.111276 0.636977 0.047155
5161.113000 5161.110000 1.790000 1224.804173 68.613672 0.646199 0.047746
5163.838000 5163.840000 1.800000 1224.426772 69.137276 0.656675 0.049322
5166.600000 5166.600000 1.810000 1229.892267 69.636205 0.666959 0.050408
5169.373000 5169.370000 1.830000 1226.720837 70.546864 0.681653 0.051482
5172.171000 5172.170000 1.840000 1225.105768 71.065736 0.693016 0.053091
5174.978000 5174.980000 1.850000 1226.827271 71.565073 0.704157 0.054577
5177.808000 5177.810000 1.860000 1228.710461 72.085467 0.715831 0.056078
5180.662000 5180.660000 1.880000 1228.082893 73.009577 0.730693 0.057160
5183.531000 5183.530000 1.890000 1229.301797 73.531975 0.742508 0.058392
5186.418000 5186.420000 1.900000 1228.232234 74.072363 0.755014 0.059615
5189.319000 5189.320000 1.910000 1238.062816 74.600418 0.766452 0.060764
5192.249000 5192.250000 1.930000 1234.892361 75.516579 0.782797 0.062092
5195.199000 5195.200000 1.940000 1233.884745 76.036112 0.794818 0.062556
5198.160000 5198.160000 1.950000 1242.967785 76.545416 0.807823 0.063761
5201.139000 5201.140000 1.960000 1240.067647 77.072597 0.820267 0.064949
5204.150000 5204.150000 1.980000 1237.037857 78.024569 0.837768 0.066866
5207.170000 5207.170000 1.990000 1248.904818 78.601041 0.850594 0.067059
5210.212000 5210.210000 2.000000 1253.123851 79.136355 0.863861 0.068323
5213.270000 5213.270000 2.010000 1255.498275 79.651157 0.877018 0.069438
5216.349000 5216.350000 2.030000 1254.885339 80.585328 0.895234 0.070714
5219.452000 5219.450000 2.040000 1254.278524 81.092385 0.908598 0.072211
5222.560000 5222.560000 2.050000 1261.159130 81.617533 0.922765 0.073942
5225.701000 5225.700000 2.060000 1263.739432 82.129096 0.936258 0.074868
5228.853000 5228.850000 2.080000 1267.649862 83.031908 0.955618 0.076994
5232.029000 5232.030000 2.090000 1272.482148 83.553968 0.970654 0.078782
5235.220000 5235.220000 2.100000 1266.595469 84.111833 0.985138 0.079821
5238.431000 5238.430000 2.110000 1273.076855 84.637360 1.000950 0.081916
5241.661000 5241.660000 2.130000 1272.031521 85.570932 1.020879 0.084032
5244.920000 5244.920000 2.140000 1279.433915 86.051770 1.035780 0.085720
5248.183000 5248.180000 2.150000 1283.568247 86.153058 1.046202 0.087348
5251.471000 5251.470000 2.160000 1283.706702 86.736385 1.062823 0.089289
5254.782000 5254.780000 2.180000 1286.396078 88.029107 1.088178 0.091919
5258.108000 5258.110000 2.190000 1288.715235 88.708743 1.106218 0.093674
5261.451000 5261.450000 2.200000 1298.433387 89.271310 1.123286 0.095144
5264.817000 5264.820000 2.210000 1303.475569 89.890500 1.141044 0.097118
5268.202000 5268.200000 2.230000 1305.655951 90.958593 1.165507 0.099818
5271.598000 5271.600000 2.240000 1310.782638 91.590917 1.183963 0.101486
5275.033000 5275.030000 2.250000 1312.868364 92.340264 1.204648 0.103593
5278.467000 5278.470000 2.260000 1318.609120 91.811490 1.208396 0.104126
5281.932000 5281.930000 2.280000 1316.380773 94.062785 1.250112 0.107474
5285.399000 5285.400000 2.290000 1321.307696 94.961046 1.273891 0.109927
5288.902000 5288.900000 2.300000 1329.025233 95.981283 1.299604 0.112600
5292.419000 5292.420000 2.310000 1332.812581 96.672900 1.321874 0.114517
5295.960000 5295.960000 2.330000 1332.286900 97.823395 1.350407 0.117512
5299.510000 5299.510000 2.340000 1332.816847 98.407066 1.372809 0.120745
5303.089000 5303.090000 2.350000 1330.534705 99.051408 1.395254 0.122682
5306.682000 5306.680000 2.360000 1336.014492 99.774183 1.419616 0.125438
5310.289000 5310.290000 2.380000 1331.515218 100.905975 1.450003 0.128788
5313.920000 5313.920000 2.390000 1339.732642 101.593503 1.474252 0.131276
5317.572000 5317.570000 2.400000 1343.268118 102.282292 1.499243 0.133954
5321.238000 5321.240000 2.410000 1346.206959 102.745814 1.520763 0.136708
5324.928000 5324.930000 2.430000 1348.582268 103.799567 1.551292 0.140043
5328.639000 5328.640000 2.440000 1351.556250 104.335220 1.574995 0.143050
5332.357000 5332.360000 2.450000 1356.153085 104.939923 1.599193 0.145848
5336.112000 5336.110000 2.460000 1362.592226 105.548572 1.623191 0.148823
5339.872000 5339.870000 2.480000 1360.676188 106.603632 1.656080 0.153230
5343.657000 5343.660000 2.490000 1367.601877 107.226672 1.681828 0.155799
5347.460000 5347.460000 2.500000 1373.670942 107.731804 1.706342 0.158917
5351.281000 5351.280000 2.510000 1376.329545 108.153449 1.729074 0.161852
5355.118000 5355.120000 2.530000 1381.203935 108.465511 1.751687 0.164937
5358.980000 5358.980000 2.540000 1382.685062 110.130578 1.796562 0.169728
5362.862000 5362.860000 2.550000 1389.616059 110.774273 1.824314 0.172609
5366.757000 5366.760000 2.560000 1393.435322 111.265785 1.851037 0.175976
5370.680000 5370.680000 2.580000 1394.170404 112.172458 1.885598 0.179287
5374.610000 5374.610000 2.590000 1395.031056 112.595620 1.912864 0.182573
5378.568000 5378.570000 2.600000 1400.650967 113.055829 1.940164 0.185991
5382.539000 5382.540000 2.610000 1399.935146 113.581984 1.968393 0.189709
5386.542000 5386.540000 2.630000 1400.990952 114.399783 2.003004 0.193900
5390.546000 5390.550000 2.640000 1408.257161 114.750453 2.029710 0.197622
5394.583000 5394.580000 2.650000 1413.662756 115.106471 2.057087 0.201013
5398.633000 5398.630000 2.660000 1412.098965 115.214821 2.078929 0.203636
5402.699000 5402.700000 2.680000 1418.384906 115.968719 2.113974 0.208398
5406.788000 5406.790000 2.690000 1423.100785 115.974787 2.135307 0.211129
5410.902000 5410.900000 2.700000 1428.378058 116.036903 2.157764 0.214770
5415.021000 5415.020000 2.710000 1428.295293 116.281876 2.184251 0.218666
5419.169000 5419.170000 2.730000 1439.135689 116.287472 2.204846 0.221920
5423.330000 5423.330000 2.740000 1445.315464 116.675649 2.234085 0.226081
5427.522000 5427.520000 2.750000 1452.568983 116.953178 2.261367 0.229466
5431.720000 5431.720000 2.760000 1453.702716 116.930313 2.283177 0.233068
5435.942000 5435.940000 2.780000 1459.966456 117.396920 2.316563 0.237970
5440.180000 5440.180000 2.790000 1465.507167 117.738944 2.346587 0.242169
5444.439000 5444.440000 2.800000 1467.286292 117.952936 2.375698 0.246440
5448.721000 5448.720000 2.810000 1472.038197 117.953496 2.399867 0.249899
5453.020000 5453.020000 2.830000 1475.678239 118.448322 2.434582 0.255232
5457.341000 5457.340000 2.840000 1474.908657 118.598965 2.463279 0.258878
5461.671000 5461.670000 2.850000 1481.074698 118.677961 2.490380 0.263089
5466.029000 5466.030000 2.860000 1484.203713 118.867518 2.519907 0.267267
5470.404000 5470.400000 2.880000 1488.356727 119.447091 2.558295 0.272612
5474.800000 5474.800000 2.890000 1491.356801 119.719740 2.590567 0.277376
5479.214000 5479.210000 2.900000 1499.379241 119.984422 2.623161 0.281936
5483.637000 5483.640000 2.910000 1505.291618 120.307618 2.656522 0.286662
5488.090000 5488.090000 2.930000 1512.999410 120.972720 2.698673 0.292888
5492.559000 5492.560000 2.940000 1516.204282 121.300582 2.733149 0.297921
5497.052000 5497.050000 2.950000 1520.302077 121.746862 2.771495 0.303391
5501.557000 5501.560000 2.960000 1523.624629 122.182520 2.810165 0.309144
5506.078000 5506.080000 2.980000 1529.669926 123.079128 2.859663 0.316238
5510.635000 5510.630000 2.990000 1538.883968 123.633772 2.901853 0.322241
5515.193000 5515.190000 3.000000 1545.989491 124.195567 2.944003 0.328237
5519.781000 5519.780000 3.010000 1551.263684 124.762873 2.988539 0.334886
5524.376000 5524.380000 3.030000 1556.956182 125.786827 3.043555 0.342562
5528.999000 5529.000000 3.040000 1557.908507 126.496223 3.092473 0.349920
5533.641000 5533.640000 3.050000 1568.103858 127.228875 3.142957 0.356515
5538.300000 5538.300000 3.060000 1571.840076 127.789244 3.190589 0.364816
5542.981000 5542.980000 3.080000 1575.995869 128.969130 3.253712 0.373840
5547.681000 5547.680000 3.090000 1577.530182 129.698200 3.306793 0.381470
5552.398000 5552.400000 3.100000 1584.441930 130.475642 3.361192 0.388945
5557.131000 5557.130000 3.110000 1590.710132 131.228238 3.416578 0.397462
5561.889000 5561.890000 3.130000 1594.801595 132.493961 3.485578 0.407516
5566.659000 5566.660000 3.140000 1598.283755 133.246438 3.542997 0.415813
5571.461000 5571.460000 3.150000 1603.501632 134.360049 3.609979 0.425840
5576.271000 5576.270000 3.160000 1607.290052 135.273028 3.672776 0.435291
5581.101000 5581.100000 3.180000 1615.322657 136.454438 3.743435 0.446179
5585.949000 5585.950000 3.190000 1617.233284 137.365105 3.807314 0.455401
5590.818000 5590.820000 3.200000 1628.748284 138.220395 3.872129 0.465323
5595.708000 5595.710000 3.210000 1631.516377 138.969744 3.934535 0.474984
5600.620000 5600.620000 3.230000 1637.841862 140.932161 4.032204 0.489089
5605.540000 5605.540000 3.240000 1643.751758 141.733489 4.097191 0.499229
5610.492000 5610.490000 3.250000 1647.501595 142.515225 4.164481 0.510308
5615.450000 5615.450000 3.260000 1654.400683 143.319092 4.231397 0.520640
5620.438000 5620.440000 3.280000 1661.812527 144.452786 4.310325 0.532980
5625.439000 5625.440000 3.290000 1665.302419 144.503245 4.357581 0.541478
5630.458000 5630.460000 3.300000 1676.976882 144.790709 4.410930 0.551090
5635.500000 5635.500000 3.310000 1676.437511 145.686210 4.487243 0.563337
5640.556000 5640.560000 3.330000 1677.870385 146.896201 4.572444 0.577261
5645.638000 5645.640000 3.340000 1684.140372 147.407018 4.634924 0.588230
5650.741000 5650.740000 3.350000 1691.070515 147.902772 4.701472 0.599971
5655.860000 5655.860000 3.360000 1698.031965 148.613338 4.774081 0.612037
5660.991000 5660.990000 3.380000 1700.150183 149.795252 4.864848 0.626277
5666.153000 5666.150000 3.390000 1705.708898 150.465463 4.938072 0.639514
5671.321000 5671.320000 3.400000 1713.204500 151.447201 5.020930 0.653123
5676.520000 5676.520000 3.410000 1721.617296 152.338440 5.103876 0.666792
5681.731000 5681.730000 3.430000 1725.394617 153.522576 5.194462 0.682464
5686.961000 5686.960000 3.440000 1732.638582 154.341900 5.272282 0.695973
5692.212000 5692.210000 3.450000 1746.507719 154.912240 5.341619 0.709016
5697.481000 5697.480000 3.460000 1751.140014 155.529752 5.408001 0.721481
5702.770000 5702.770000 3.480000 1764.788789 156.502484 5.478412 0.734088
5708.080000 5708.080000 3.490000 1776.718962 157.124495 5.517767 0.743945
