# XDI/1.0 BlueSky/1.5.0
# Beamline.name: 6BM
# Beamline.xray_source: NSLS-II three-pole wiggler
# Beamline.collimation: paraboloid mirror, 5 nm Rh on 30 nm Pt
# Beamline.focusing: not in use
# Beamline.harmonic_rejection: flat mirror, Si stripe, pitch = 7.0 mrad relative to beam
# Detector.i0: 10 cm N2
# Detector.i1: 25 cm N2
# Detector.i2: 25 cm N2
# Element.symbol: Ti
# Element.edge: K
# Facility.name: NSLS-II
# Facility.energy: 3.0
# Facility.current: 219.3
# Facility.mode: top-off
# Facility.gup: 301027
# Facility.saf: 304156
# Mono.name: Si(111)
# Mono.d_spacing: 3.1352584
# Mono.encoder_resolution: 0.0000050 deg/ct
# Mono.angle_offset: 16.0571090 deg
# Mono.scan_mode: pseudo channel cut
# Mono.scan_type: step
# Mono.direction: forward in energy
# Sample.name: CeTi2O6
# Sample.prep: Powder in polyethylene glycol pellet
# Sample.x_position: -113.290 mm
# Sample.y_position: 117.505 mm
# Sample.wheel_position: 255.000 mm
# Scan.experimenters: Bruce Ravel, Martin Stennett
# Scan.edge_energy: 4966.0
# Scan.start_time: 2019-05-30T18:02:41
# Scan.end_time: 2019-05-30T18:46:13
# Scan.transient_id: 9846
# Scan.uid: 4a81d723-ebb2-4d6b-b3a6-4cdd5b77bdce
# Scan.plot_hint: (DTC1 + DTC2 + DTC3 + DTC4) / I0  --  ($8+$9+$10+$11) / $5
# Scan.sequence: merge of 3 scans
# Column.1: energy eV
# Column.2: requested_energy eV
# Column.3: measurement_time seconds
# Column.4: mutrans
# Column.5: i0
# Column.6: itrans
# Column.7: irefer
# /////
#  sample disk prepared by Martin
# -----
# energy   requested_energy   measurement_time   mutrans   i0   itrans   irefer
4765.998000 4766.000000 0.500000 80.144383 10.234964 0.046409 0.006237
4776.005000 4776.000000 0.500000 73.534782 10.481841 0.048515 0.006571
4786.007000 4786.000000 0.500000 71.853558 10.730754 0.051334 0.006940
4796.007000 4796.000000 0.500000 69.086200 10.994037 0.054700 0.007111
4806.010000 4806.000000 0.500000 64.652604 11.260240 0.058016 0.007638
4816.001000 4816.000000 0.500000 64.501032 11.482771 0.061128 0.008016
4826.005000 4826.000000 0.500000 56.460971 11.783925 0.065276 0.008493
4835.999000 4836.000000 0.500000 54.187027 12.024058 0.069232 0.009119
4845.999000 4846.000000 0.500000 54.399555 12.285270 0.073432 0.009793
4856.000000 4856.000000 0.500000 48.360012 12.583319 0.077393 0.009869
4866.011000 4866.000000 0.500000 45.473728 12.855326 0.082141 0.010774
4876.005000 4876.000000 0.500000 40.562114 13.129827 0.086997 0.011450
4886.003000 4886.000000 0.500000 40.385502 13.407157 0.092032 0.012304
4896.003000 4896.000000 0.500000 37.839215 13.674862 0.097059 0.012734
4906.007000 4906.000000 0.500000 35.264789 13.944862 0.102546 0.013626
4916.003000 4916.000000 0.500000 33.517454 14.221458 0.108038 0.014309
4926.000000 4926.000000 0.500000 28.959677 14.533907 0.114078 0.015060
4935.999000 4936.000000 0.500000 28.538390 14.808936 0.120203 0.016230
4938.000000 4938.000000 0.500000 30.800086 14.852719 0.121244 0.016338
4939.997000 4940.000000 0.500000 30.667145 14.903226 0.122514 0.016451
4941.994000 4942.000000 0.500000 32.109299 14.953649 0.123935 0.016751
4943.994000 4944.000000 0.500000 31.915415 15.004300 0.124876 0.016855
4945.997000 4946.000000 0.500000 31.630569 15.045893 0.126097 0.017008
4947.999000 4948.000000 0.500000 31.982281 15.089980 0.127526 0.017328
4950.003000 4950.000000 0.500000 33.885601 15.141690 0.128728 0.017566
4952.003000 4952.000000 0.500000 34.965387 15.192900 0.130043 0.017575
4954.002000 4954.000000 0.500000 35.533484 15.240485 0.131407 0.017961
4956.004000 4956.000000 0.500000 37.570911 15.284712 0.132443 0.017990
4956.247000 4956.250000 0.500000 35.939152 15.288410 0.132533 0.018241
4956.495000 4956.500000 0.500000 36.365865 15.294194 0.132370 0.017802
4956.742000 4956.750000 0.500000 36.720142 15.299655 0.132665 0.018105
4956.993000 4957.000000 0.500000 37.540977 15.307940 0.132847 0.018050
4957.244000 4957.250000 0.500000 38.318584 15.315675 0.132944 0.018004
4957.493000 4957.500000 0.500000 37.822069 15.318382 0.133134 0.017954
4957.743000 4957.750000 0.500000 37.816948 15.317873 0.133180 0.017962
4957.993000 4958.000000 0.500000 38.317042 15.327043 0.133566 0.018096
4958.245000 4958.250000 0.500000 39.176640 15.335137 0.133632 0.018175
4958.497000 4958.500000 0.500000 38.621879 15.335674 0.133820 0.018170
4958.746000 4958.750000 0.500000 38.331420 15.341603 0.133942 0.018105
4958.995000 4959.000000 0.500000 41.000394 15.351536 0.133988 0.018014
4959.242000 4959.250000 0.500000 41.610549 15.357323 0.134196 0.018075
4959.494000 4959.500000 0.500000 42.199186 15.362107 0.134268 0.018122
4959.745000 4959.750000 0.500000 41.437058 15.365414 0.134642 0.018265
4959.997000 4960.000000 0.500000 41.238815 15.374825 0.134591 0.018104
4960.246000 4960.250000 0.500000 44.918835 15.381580 0.134755 0.018151
4960.498000 4960.500000 0.500000 42.515115 15.384344 0.134722 0.018099
4960.747000 4960.750000 0.500000 42.876650 15.393767 0.135011 0.018117
4960.997000 4961.000000 0.500000 45.179950 15.398823 0.135083 0.018149
4961.245000 4961.250000 0.500000 44.476369 15.406178 0.135429 0.018322
4961.495000 4961.500000 0.500000 44.371907 15.407410 0.135388 0.018202
4961.746000 4961.750000 0.500000 46.025112 15.410632 0.135626 0.018282
4961.998000 4962.000000 0.500000 46.482501 15.417056 0.135783 0.018304
4962.248000 4962.250000 0.500000 49.426712 15.428698 0.135727 0.018223
4962.497000 4962.500000 0.500000 48.460074 15.432461 0.136082 0.018200
4962.745000 4962.750000 0.500000 48.423440 15.435663 0.136149 0.018090
4962.996000 4963.000000 0.500000 49.526517 15.444955 0.136240 0.018117
4963.247000 4963.250000 0.500000 50.393173 15.454447 0.136249 0.017842
4963.495000 4963.500000 0.500000 52.953370 15.461936 0.136384 0.017992
4963.746000 4963.750000 0.500000 53.186673 15.466442 0.136480 0.017652
4963.999000 4964.000000 0.500000 52.742630 15.468225 0.136798 0.017597
4964.248000 4964.250000 0.500000 55.973697 15.473501 0.136771 0.017170
4964.500000 4964.500000 0.500000 58.551197 15.481523 0.136774 0.016445
4964.749000 4964.750000 0.500000 61.275003 15.486903 0.137035 0.015681
4964.999000 4965.000000 0.500000 63.825897 15.490813 0.137050 0.014516
4965.248000 4965.250000 0.500000 65.155799 15.490582 0.136845 0.013543
4965.496000 4965.500000 0.500000 68.505642 15.497396 0.137194 0.013003
4965.747000 4965.750000 0.500000 76.753417 15.505891 0.136786 0.012785
4965.998000 4966.000000 0.500000 82.090382 15.510681 0.136866 0.013011
4966.247000 4966.250000 0.500000 93.530360 15.513540 0.136458 0.013471
4966.502000 4966.500000 0.500000 109.391159 15.516407 0.135979 0.013837
4966.750000 4966.750000 0.500000 137.766347 15.520542 0.135067 0.014075
4967.000000 4967.000000 0.500000 179.398295 15.531284 0.133588 0.014217
4967.251000 4967.250000 0.500000 233.757410 15.533599 0.131446 0.014022
4967.497000 4967.500000 0.500000 270.232278 15.535807 0.130108 0.013996
4967.751000 4967.750000 0.500000 270.076133 15.541602 0.130090 0.013784
4967.999000 4968.000000 0.500000 260.444966 15.546533 0.130757 0.013477
4968.250000 4968.250000 0.500000 254.140053 15.551501 0.131302 0.013603
4968.502000 4968.500000 0.500000 286.549884 15.557213 0.130271 0.013136
4968.749000 4968.750000 0.500000 353.658319 15.560759 0.127782 0.012772
4969.001000 4969.000000 0.500000 424.753952 15.563547 0.124774 0.012324
4969.248000 4969.250000 0.500000 489.120462 15.567534 0.122746 0.012153
4969.496000 4969.500000 0.500000 514.767634 15.565614 0.121552 0.011850
4969.751000 4969.750000 0.500000 521.964520 15.567290 0.121192 0.011626
4969.996000 4970.000000 0.500000 516.243400 15.570967 0.121988 0.011793
4970.251000 4970.250000 0.500000 481.399296 15.579906 0.122951 0.011758
4970.500000 4970.500000 0.500000 449.449047 15.595472 0.124610 0.011900
4970.750000 4970.750000 0.500000 417.480379 15.605241 0.126167 0.012213
4971.001000 4971.000000 0.500000 387.212638 15.617963 0.127217 0.011750
4971.248000 4971.250000 0.500000 365.863923 15.620033 0.128572 0.012165
4971.502000 4971.500000 0.500000 339.368079 15.628133 0.129859 0.012111
4971.749000 4971.750000 0.500000 325.984524 15.633898 0.130563 0.011740
4972.003000 4972.000000 0.500000 323.861526 15.640488 0.130766 0.011742
4972.253000 4972.250000 0.500000 339.118539 15.645089 0.130209 0.011517
4972.500000 4972.500000 0.500000 361.787767 15.652753 0.129601 0.011182
4972.750000 4972.750000 0.500000 381.301408 15.659271 0.128983 0.011055
4973.000000 4973.000000 0.500000 389.734305 15.660046 0.128592 0.010760
4973.253000 4973.250000 0.500000 396.231946 15.662266 0.128543 0.010437
4973.497000 4973.500000 0.500000 390.919070 15.666406 0.129059 0.010419
4973.750000 4973.750000 0.500000 385.396765 15.708292 0.129402 0.010025
4974.000000 4974.000000 0.500000 382.985715 15.710666 0.129923 0.010122
4974.254000 4974.250000 0.500000 373.897551 15.711708 0.130224 0.009959
4974.500000 4974.500000 0.500000 369.795455 15.714632 0.130534 0.009796
4974.751000 4974.750000 0.500000 380.433213 15.719130 0.130524 0.009465
4974.999000 4975.000000 0.500000 384.591386 15.723261 0.130418 0.009434
4975.251000 4975.250000 0.500000 397.850003 15.722797 0.129883 0.009258
4975.501000 4975.500000 0.500000 420.270551 15.722201 0.129225 0.009260
4975.754000 4975.750000 0.500000 456.319681 15.723433 0.128324 0.009105
4976.001000 4976.000000 0.500000 472.773771 15.725175 0.127108 0.008776
4976.256000 4976.250000 0.500000 508.776572 15.723458 0.125938 0.008506
4976.500000 4976.500000 0.500000 543.096191 15.723282 0.124655 0.008051
4976.749000 4976.750000 0.500000 585.212913 15.726357 0.123284 0.008160
4976.999000 4977.000000 0.500000 630.878786 15.724612 0.121861 0.008063
4977.253000 4977.250000 0.500000 669.713219 15.723749 0.120358 0.007786
4977.498000 4977.500000 0.500000 703.897863 15.728379 0.119180 0.007666
4977.751000 4977.750000 0.500000 742.482684 15.733051 0.117851 0.007587
4978.001000 4978.000000 0.500000 784.984799 15.737117 0.116545 0.007622
4978.255000 4978.250000 0.500000 820.777504 15.742087 0.115355 0.007437
4978.501000 4978.500000 0.500000 850.246147 15.780194 0.114324 0.007265
4978.752000 4978.750000 0.500000 903.086252 15.781307 0.112865 0.007251
4979.001000 4979.000000 0.500000 943.153237 15.783872 0.111656 0.006994
4979.252000 4979.250000 0.500000 977.486614 15.786274 0.110401 0.007150
4979.500000 4979.500000 0.500000 1014.100837 15.784178 0.109102 0.006877
4979.755000 4979.750000 0.500000 1069.755015 15.783677 0.107797 0.006917
4980.002000 4980.000000 0.500000 1116.219212 15.781806 0.106021 0.006763
4980.250000 4980.250000 0.500000 1178.490550 15.819299 0.104288 0.006703
4980.499000 4980.500000 0.500000 1242.489494 15.820002 0.102298 0.006502
4980.751000 4980.750000 0.500000 1300.304010 15.817689 0.100066 0.006356
4981.000000 4981.000000 0.500000 1375.557888 15.817547 0.098010 0.006215
4981.253000 4981.250000 0.500000 1469.513818 15.815633 0.095643 0.006189
4981.500000 4981.500000 0.500000 1538.278170 15.820206 0.093192 0.006005
4981.752000 4981.750000 0.500000 1633.439130 15.826425 0.090614 0.005882
4982.001000 4982.000000 0.500000 1732.998204 15.830523 0.087980 0.005782
4982.250000 4982.250000 0.500000 1836.111739 15.831548 0.084750 0.005557
4982.500000 4982.500000 0.500000 1927.296205 15.834714 0.082042 0.005681
4982.750000 4982.750000 0.500000 2046.210541 15.843121 0.079109 0.005389
4983.001000 4983.000000 0.500000 2154.313908 15.846074 0.076659 0.005261
4983.252000 4983.250000 0.500000 2229.152704 15.847415 0.074421 0.005185
4983.501000 4983.500000 0.500000 2313.552239 15.848171 0.072384 0.005011
4983.751000 4983.750000 0.500000 2376.416736 15.850556 0.070723 0.004956
4984.001000 4984.000000 0.500000 2428.182145 15.853381 0.069604 0.005022
4984.251000 4984.250000 0.500000 2467.718383 15.855349 0.068452 0.004778
4984.498000 4984.500000 0.500000 2516.644809 15.856562 0.067689 0.004886
4984.751000 4984.750000 0.500000 2537.250607 15.856506 0.066902 0.004835
4985.000000 4985.000000 0.500000 2563.614715 15.862806 0.066585 0.005014
4985.255000 4985.250000 0.500000 2569.310388 15.863439 0.065958 0.004776
4985.500000 4985.500000 0.500000 2601.069574 15.866542 0.065968 0.004902
4985.752000 4985.750000 0.500000 2587.847081 15.870205 0.065762 0.004924
4985.999000 4986.000000 0.500000 2603.947915 15.873481 0.065762 0.004987
4986.251000 4986.250000 0.500000 2600.775186 15.874160 0.065849 0.004922
4986.499000 4986.500000 0.500000 2606.566374 15.874787 0.065990 0.005059
4986.754000 4986.750000 0.500000 2614.795914 15.873687 0.065930 0.004957
4987.000000 4987.000000 0.500000 2610.153692 15.875702 0.065778 0.005029
4987.256000 4987.250000 0.500000 2631.542783 15.874115 0.065648 0.004924
4987.502000 4987.500000 0.500000 2609.612451 15.875864 0.065575 0.004885
4987.751000 4987.750000 0.500000 2620.536707 15.875977 0.065715 0.005000
4988.001000 4988.000000 0.500000 2622.716818 15.882222 0.066088 0.004841
4988.251000 4988.250000 0.500000 2608.864045 15.890473 0.066455 0.005035
4988.502000 4988.500000 0.500000 2582.426816 15.902515 0.066934 0.005092
4988.752000 4988.750000 0.500000 2574.108760 15.913437 0.067494 0.005146
4989.004000 4989.000000 0.500000 2562.092688 15.927663 0.068053 0.005147
4989.253000 4989.250000 0.500000 2527.241691 15.939350 0.068555 0.005128
4989.500000 4989.500000 0.500000 2519.022221 15.956699 0.068949 0.005013
4989.748000 4989.750000 0.500000 2506.161754 15.971376 0.069558 0.005170
4990.004000 4990.000000 0.500000 2488.851115 15.985007 0.070091 0.005258
4990.251000 4990.250000 0.500000 2484.916363 15.998246 0.070441 0.005225
4990.503000 4990.500000 0.500000 2480.055551 16.009563 0.071008 0.005343
4990.752000 4990.750000 0.500000 2446.395171 16.026972 0.071145 0.005269
4991.005000 4991.000000 0.500000 2440.936001 16.041413 0.071769 0.005307
4991.251000 4991.250000 0.500000 2432.499839 16.051814 0.072193 0.005374
4991.500000 4991.500000 0.500000 2418.857191 16.063356 0.072531 0.005294
4991.749000 4991.750000 0.500000 2416.276825 16.073899 0.072878 0.005362
4992.000000 4992.000000 0.500000 2393.612619 16.087479 0.073213 0.005392
4992.250000 4992.250000 0.500000 2403.854633 16.098208 0.073357 0.005087
4992.499000 4992.500000 0.500000 2395.470457 16.111122 0.073962 0.005355
4992.752000 4992.750000 0.500000 2369.806073 16.116332 0.074284 0.005440
4993.002000 4993.000000 0.500000 2393.924832 16.122463 0.074500 0.005539
4993.250000 4993.250000 0.500000 2374.035769 16.128500 0.074651 0.005492
4993.497000 4993.500000 0.500000 2370.396934 16.138429 0.074863 0.005506
4993.752000 4993.750000 0.500000 2379.835225 16.146557 0.075104 0.005674
4994.001000 4994.000000 0.500000 2365.996692 16.153188 0.074779 0.005321
4994.252000 4994.250000 0.500000 2390.443676 16.160758 0.074965 0.005445
4994.503000 4994.500000 0.500000 2390.751525 16.164747 0.074702 0.005483
4994.753000 4994.750000 0.500000 2399.197553 16.169848 0.074403 0.005331
4995.002000 4995.000000 0.500000 2416.709984 16.175921 0.074521 0.005443
4995.248000 4995.250000 0.500000 2436.506462 16.181844 0.073959 0.005431
4995.501000 4995.500000 0.500000 2455.695762 16.183632 0.073675 0.005245
4995.749000 4995.750000 0.500000 2459.427721 16.189211 0.073171 0.005357
4996.001000 4996.000000 0.700000 2478.806436 22.659241 0.101874 0.007309
4997.091000 4997.080000 0.710000 2578.958937 23.015950 0.100937 0.007159
4998.187000 4998.180000 0.730000 2627.355724 23.672215 0.102045 0.007103
4999.297000 4999.290000 0.740000 2643.627148 24.019254 0.103487 0.007146
5000.437000 5000.430000 0.750000 2622.355184 24.385723 0.106190 0.007180
5001.589000 5001.580000 0.760000 2612.855201 24.765499 0.109185 0.007662
5002.765000 5002.760000 0.780000 2582.823215 25.477794 0.113619 0.007869
5003.957000 5003.950000 0.790000 2518.868455 25.874988 0.119209 0.008080
5005.168000 5005.160000 0.800000 2425.978590 26.273605 0.125855 0.008587
5006.395000 5006.390000 0.810000 2312.373765 26.675256 0.133215 0.009091
5007.648000 5007.640000 0.830000 2237.052126 27.402487 0.140352 0.009427
5008.917000 5008.910000 0.840000 2200.890295 27.799914 0.145523 0.009834
5010.205000 5010.200000 0.850000 2138.910392 28.198371 0.151110 0.010642
5011.514000 5011.510000 0.860000 2111.427479 28.591075 0.156443 0.011047
5012.835000 5012.830000 0.880000 2081.463326 29.310108 0.162056 0.011283
5014.185000 5014.180000 0.890000 2075.885322 29.698369 0.165426 0.011351
5015.544000 5015.540000 0.900000 2061.986550 30.116319 0.169073 0.011866
5016.934000 5016.930000 0.910000 2071.405765 30.544500 0.171893 0.012029
5018.337000 5018.330000 0.930000 2093.774192 31.277840 0.176005 0.012662
5019.754000 5019.750000 0.940000 2084.598094 31.680865 0.179366 0.013057
5021.193000 5021.190000 0.950000 2067.824120 32.081356 0.184004 0.013467
5022.654000 5022.650000 0.960000 2044.125106 32.488455 0.188411 0.013433
5024.137000 5024.130000 0.980000 2046.376194 33.238143 0.194393 0.014024
5025.638000 5025.630000 0.990000 2054.373497 33.649726 0.197004 0.014135
5027.147000 5027.140000 1.000000 2071.033810 34.060650 0.200046 0.014400
5028.685000 5028.680000 1.010000 2081.242308 34.549893 0.203242 0.014654
5030.243000 5030.240000 1.030000 2094.904932 35.307322 0.207775 0.014792
5031.814000 5031.810000 1.040000 2104.478500 35.728533 0.210129 0.014544
5033.403000 5033.400000 1.050000 2116.209801 36.138528 0.213627 0.014658
5035.015000 5035.010000 1.060000 2125.241970 36.551647 0.216429 0.014364
5036.656000 5036.650000 1.080000 2147.681728 37.318195 0.222073 0.014735
5038.305000 5038.300000 1.090000 2151.055927 37.742661 0.225058 0.014796
5039.975000 5039.970000 1.100000 2150.349634 38.207952 0.228108 0.014984
5041.647000 5041.650000 1.110000 2179.728449 38.669070 0.231850 0.015265
5043.357000 5043.360000 1.130000 2185.064932 39.440508 0.237250 0.015846
5045.089000 5045.090000 1.140000 2189.387988 39.856456 0.240631 0.016128
5046.828000 5046.830000 1.150000 2205.746316 40.277722 0.243451 0.016180
5048.598000 5048.600000 1.160000 2227.074538 40.710851 0.245902 0.016821
5050.376000 5050.380000 1.180000 2268.206263 41.488884 0.250465 0.017534
5052.175000 5052.180000 1.190000 2284.066159 41.920721 0.253010 0.017730
5053.995000 5054.000000 1.200000 2303.599281 42.360152 0.255266 0.018406
5055.835000 5055.840000 1.210000 2329.592904 42.794161 0.258108 0.018711
5057.693000 5057.700000 1.230000 2345.677412 43.590923 0.263500 0.019123
5059.575000 5059.580000 1.240000 2353.258568 44.033756 0.266440 0.019294
5061.473000 5061.480000 1.250000 2371.950107 44.466433 0.269570 0.019662
5063.395000 5063.400000 1.260000 2386.721197 44.917148 0.273582 0.019976
5065.325000 5065.330000 1.280000 2394.499709 45.725478 0.280322 0.020739
5067.283000 5067.290000 1.290000 2385.604296 46.169707 0.285333 0.021067
5069.255000 5069.260000 1.300000 2378.010365 46.612005 0.290843 0.021796
5071.255000 5071.260000 1.310000 2378.821687 47.062473 0.296222 0.021966
5073.265000 5073.270000 1.330000 2358.590794 47.868880 0.304562 0.022572
5075.296000 5075.300000 1.340000 2346.845002 48.307941 0.311654 0.023054
5077.345000 5077.350000 1.350000 2329.586311 48.752402 0.318352 0.023191
5079.416000 5079.420000 1.360000 2319.891859 49.198483 0.325029 0.023493
5081.509000 5081.510000 1.380000 2312.771652 49.997409 0.333830 0.023759
5083.609000 5083.610000 1.390000 2306.427659 50.432980 0.339065 0.023652
5085.742000 5085.740000 1.400000 2306.854131 50.889873 0.345092 0.023789
5087.886000 5087.890000 1.410000 2308.662346 51.321114 0.351482 0.024275
5090.051000 5090.050000 1.430000 2292.245250 52.126274 0.360405 0.024634
5092.234000 5092.230000 1.440000 2288.641620 52.560787 0.368031 0.024914
5094.441000 5094.440000 1.450000 2269.225473 53.006030 0.374605 0.025631
5096.658000 5096.660000 1.460000 2266.147644 53.453559 0.382477 0.026638
5098.898000 5098.900000 1.480000 2264.236882 54.257572 0.391840 0.027771
5101.160000 5101.160000 1.490000 2269.468003 54.697394 0.397408 0.028746
5103.436000 5103.440000 1.500000 2278.537517 55.144887 0.402775 0.029751
5105.738000 5105.740000 1.510000 2290.977509 55.586643 0.407362 0.030565
5108.051000 5108.050000 1.530000 2299.083313 56.390627 0.415305 0.031270
5110.392000 5110.390000 1.540000 2314.193887 56.842019 0.421535 0.031747
5112.745000 5112.740000 1.550000 2315.211321 57.292729 0.427809 0.032047
5115.122000 5115.120000 1.560000 2319.819847 57.727386 0.434478 0.032654
5117.514000 5117.510000 1.580000 2331.342612 58.550056 0.443424 0.033380
5119.923000 5119.920000 1.590000 2334.880070 58.996943 0.449815 0.033772
5122.351000 5122.350000 1.600000 2346.346861 59.460439 0.456185 0.034411
5124.801000 5124.800000 1.610000 2353.516821 59.910274 0.462527 0.034981
5127.272000 5127.270000 1.630000 2374.835021 60.737319 0.471575 0.035584
5129.764000 5129.760000 1.640000 2376.802664 61.199185 0.477938 0.036325
5132.271000 5132.270000 1.650000 2379.477035 61.659823 0.485127 0.036891
5134.792000 5134.790000 1.660000 2388.884115 62.119705 0.492456 0.037651
5137.340000 5137.340000 1.680000 2385.218791 62.967451 0.503178 0.038346
5139.899000 5139.900000 1.690000 2400.926860 63.446215 0.510332 0.038422
5142.491000 5142.490000 1.700000 2405.012917 63.920575 0.517405 0.038780
5145.091000 5145.090000 1.710000 2415.538488 64.571972 0.525296 0.038663
5147.709000 5147.710000 1.730000 2426.129048 65.424282 0.536539 0.039840
5150.351000 5150.350000 1.740000 2423.328289 66.071697 0.546654 0.040410
5153.010000 5153.010000 1.750000 2430.726455 66.544473 0.554775 0.040944
5155.693000 5155.690000 1.760000 2427.387825 67.075486 0.564362 0.042380
5158.390000 5158.390000 1.780000 2432.107325 67.948647 0.577373 0.043391
5161.111000 5161.110000 1.790000 2424.902692 68.430273 0.587817 0.044767
5163.843000 5163.840000 1.800000 2427.320560 68.956650 0.598297 0.045748
5166.602000 5166.600000 1.810000 2431.425305 69.457336 0.608151 0.046522
5169.370000 5169.370000 1.830000 2440.654794 70.525527 0.622284 0.048316
5172.169000 5172.170000 1.840000 2443.035222 71.015954 0.631858 0.049529
5174.981000 5174.980000 1.850000 2454.790459 71.537212 0.640393 0.050296
5177.810000 5177.810000 1.860000 2459.021557 72.021794 0.650037 0.052113
5180.659000 5180.660000 1.880000 2464.903221 72.952786 0.663439 0.052941
5183.530000 5183.530000 1.890000 2467.916592 73.493503 0.674008 0.054074
5186.417000 5186.420000 1.900000 2474.139060 74.014114 0.684901 0.054781
5189.319000 5189.320000 1.910000 2482.270921 74.537975 0.695585 0.055638
5192.249000 5192.250000 1.930000 2479.055619 75.451818 0.710375 0.056869
5195.199000 5195.200000 1.940000 2486.233691 75.980216 0.723047 0.058370
5198.162000 5198.160000 1.950000 2482.212312 76.479707 0.735672 0.059408
5201.139000 5201.140000 1.960000 2488.875190 77.011519 0.747981 0.060278
5204.150000 5204.150000 1.980000 2479.942849 77.928322 0.764249 0.061303
5207.170000 5207.170000 1.990000 2479.789757 78.524028 0.777931 0.062811
5210.208000 5210.210000 2.000000 2482.580409 79.070037 0.790649 0.063453
5213.271000 5213.270000 2.010000 2488.178763 79.587396 0.803152 0.064073
5216.348000 5216.350000 2.030000 2499.548729 80.506102 0.819971 0.066116
5219.452000 5219.450000 2.040000 2506.803460 81.008969 0.831630 0.067155
5222.560000 5222.560000 2.050000 2514.498424 81.563405 0.845524 0.068632
5225.700000 5225.700000 2.060000 2511.325350 82.049621 0.858672 0.070070
5228.851000 5228.850000 2.080000 2515.970556 82.936566 0.875996 0.071726
5232.031000 5232.030000 2.090000 2518.239032 83.464508 0.890087 0.073110
5235.221000 5235.220000 2.100000 2535.188745 84.000349 0.903728 0.074502
5238.429000 5238.430000 2.110000 2536.098061 84.550741 0.916798 0.075929
5241.662000 5241.660000 2.130000 2548.315883 85.479221 0.935362 0.078155
5244.918000 5244.920000 2.140000 2545.950623 85.971077 0.949174 0.079779
5248.181000 5248.180000 2.150000 2560.639709 86.032870 0.957815 0.081037
5251.469000 5251.470000 2.160000 2566.078688 86.589207 0.971412 0.082578
5254.783000 5254.780000 2.180000 2577.385277 87.915451 0.995008 0.085317
5258.107000 5258.110000 2.190000 2588.039576 88.568912 1.010185 0.086474
5261.453000 5261.450000 2.200000 2601.876897 89.101449 1.025502 0.088604
5264.818000 5264.820000 2.210000 2607.645622 89.733912 1.042116 0.090356
5268.202000 5268.200000 2.230000 2607.569745 90.744391 1.064757 0.092267
5271.602000 5271.600000 2.240000 2620.902652 91.358303 1.082773 0.094342
5275.030000 5275.030000 2.250000 2620.698075 92.090109 1.103026 0.095912
5278.470000 5278.470000 2.260000 2617.776554 91.384613 1.105373 0.096366
5281.930000 5281.930000 2.280000 2621.947670 93.552010 1.143878 0.100104
5285.400000 5285.400000 2.290000 2618.915626 94.310558 1.165270 0.101844
5288.902000 5288.900000 2.300000 2628.582475 95.059991 1.186509 0.103733
5292.422000 5292.420000 2.310000 2637.174965 95.798480 1.206839 0.106146
5295.960000 5295.960000 2.330000 2648.359418 97.135041 1.235635 0.109302
5299.513000 5299.510000 2.340000 2646.775385 97.730685 1.254943 0.111238
5303.089000 5303.090000 2.350000 2658.419441 98.312156 1.273984 0.113442
5306.682000 5306.680000 2.360000 2668.141338 99.003744 1.295872 0.115712
5310.289000 5310.290000 2.380000 2676.162652 100.061255 1.321846 0.118298
5313.919000 5313.920000 2.390000 2676.066483 100.731319 1.344542 0.121117
5317.572000 5317.570000 2.400000 2681.683124 101.598720 1.370062 0.123817
5321.239000 5321.240000 2.410000 2687.684247 102.039214 1.390028 0.125887
5324.931000 5324.930000 2.430000 2695.956146 103.024907 1.417510 0.129199
5328.640000 5328.640000 2.440000 2702.806210 103.528233 1.438930 0.131599
5332.356000 5332.360000 2.450000 2705.609496 104.098965 1.462009 0.134465
5336.111000 5336.110000 2.460000 2718.142799 104.691842 1.485189 0.137261
5339.869000 5339.870000 2.480000 2715.558182 105.734117 1.516045 0.141489
5343.658000 5343.660000 2.490000 2718.165948 106.293925 1.539655 0.143853
5347.460000 5347.460000 2.500000 2725.418872 106.816199 1.564603 0.147317
5351.281000 5351.280000 2.510000 2727.625460 107.177540 1.586058 0.149943
5355.119000 5355.120000 2.530000 2734.544224 107.475569 1.608051 0.152322
5358.981000 5358.980000 2.540000 2740.321155 109.072996 1.647893 0.156452
5362.861000 5362.860000 2.550000 2749.247087 109.699734 1.673756 0.159397
5366.759000 5366.760000 2.560000 2757.435702 110.192170 1.698440 0.162304
5370.683000 5370.680000 2.580000 2760.625181 111.046541 1.729250 0.165660
5374.610000 5374.610000 2.590000 2766.131989 111.524544 1.754201 0.168837
5378.570000 5378.570000 2.600000 2774.240201 111.937111 1.778167 0.171850
5382.539000 5382.540000 2.610000 2787.280792 112.448446 1.804284 0.174871
5386.544000 5386.540000 2.630000 2793.769427 113.241293 1.834565 0.178617
5390.545000 5390.550000 2.640000 2803.991057 113.564515 1.858565 0.182178
5394.581000 5394.580000 2.650000 2812.254139 113.951800 1.882993 0.184929
5398.632000 5398.630000 2.660000 2818.949920 114.027040 1.903090 0.188445
5402.700000 5402.700000 2.680000 2831.687854 114.756695 1.934468 0.192027
5406.790000 5406.790000 2.690000 2840.916896 114.755569 1.953616 0.195072
5410.899000 5410.900000 2.700000 2846.965374 114.790219 1.973801 0.197906
5415.019000 5415.020000 2.710000 2856.793652 115.067303 1.998163 0.201230
5419.169000 5419.170000 2.730000 2869.449464 115.076836 2.017501 0.204165
5423.331000 5423.330000 2.740000 2880.078055 115.462661 2.044614 0.207636
5427.522000 5427.520000 2.750000 2882.571005 115.436458 2.065176 0.210710
5431.718000 5431.720000 2.760000 2892.600040 115.439860 2.084472 0.213986
5435.940000 5435.940000 2.780000 2899.309854 115.875199 2.113854 0.218292
5440.180000 5440.180000 2.790000 2909.813544 115.874369 2.133905 0.221036
5444.444000 5444.440000 2.800000 2918.600474 116.245804 2.162275 0.224876
5448.722000 5448.720000 2.810000 2930.780534 116.395979 2.187028 0.229162
5453.019000 5453.020000 2.830000 2942.968319 116.954176 2.219262 0.233733
5457.341000 5457.340000 2.840000 2947.567846 117.066936 2.243491 0.237286
5461.672000 5461.670000 2.850000 2957.332667 117.093519 2.266110 0.240590
5466.030000 5466.030000 2.860000 2963.086815 117.467462 2.295585 0.244428
5470.399000 5470.400000 2.880000 2982.946171 118.158477 2.332873 0.249393
5474.802000 5474.800000 2.890000 2985.866917 118.234303 2.358311 0.253447
5479.212000 5479.210000 2.900000 2999.260026 118.370217 2.384595 0.257524
5483.641000 5483.640000 2.910000 3010.827065 118.606685 2.413026 0.261455
5488.090000 5488.090000 2.930000 3020.401971 119.264323 2.450189 0.266358
5492.560000 5492.560000 2.940000 3026.832469 119.544670 2.480922 0.271061
5497.054000 5497.050000 2.950000 3035.553693 119.788155 2.512860 0.276109
5501.561000 5501.560000 2.960000 3049.405102 120.215403 2.547251 0.280864
5506.079000 5506.080000 2.980000 3055.339228 120.982004 2.590068 0.286948
5510.630000 5510.630000 2.990000 3064.035633 121.437298 2.626207 0.292340
5515.193000 5515.190000 3.000000 3077.223049 121.992034 2.665950 0.298409
5519.781000 5519.780000 3.010000 3079.416938 122.582860 2.706332 0.304170
5524.380000 5524.380000 3.030000 3097.253227 123.466270 2.753601 0.310694
5528.999000 5529.000000 3.040000 3104.457579 124.108392 2.796653 0.317666
5533.637000 5533.640000 3.050000 3108.045230 124.731763 2.839927 0.323596
5538.300000 5538.300000 3.060000 3121.697337 125.461142 2.886286 0.330361
5542.978000 5542.980000 3.080000 3131.288991 126.600665 2.942693 0.338259
5547.681000 5547.680000 3.090000 3148.266623 127.330736 2.990270 0.345627
5552.399000 5552.400000 3.100000 3153.839486 128.129751 3.040757 0.353412
5557.129000 5557.130000 3.110000 3171.876862 128.799347 3.087910 0.360289
5561.888000 5561.890000 3.130000 3173.903524 130.091104 3.152219 0.369150
5566.662000 5566.660000 3.140000 3183.776731 130.859834 3.204216 0.377198
5571.459000 5571.460000 3.150000 3190.967935 131.641038 3.256934 0.385061
5576.272000 5576.270000 3.160000 3196.602865 132.434521 3.311615 0.393589
5581.100000 5581.100000 3.180000 3221.970518 133.603518 3.375480 0.402296
5585.951000 5585.950000 3.190000 3226.740247 134.608794 3.437108 0.412268
5590.817000 5590.820000 3.200000 3243.762400 135.250212 3.489712 0.419825
5595.707000 5595.710000 3.210000 3247.664945 136.035729 3.547635 0.429564
5600.621000 5600.620000 3.230000 3258.309313 137.426892 3.622316 0.440162
5605.540000 5605.540000 3.240000 3272.443645 138.518425 3.689775 0.450691
5610.490000 5610.490000 3.250000 3280.982669 139.450359 3.753431 0.460024
5615.450000 5615.450000 3.260000 3291.299143 140.406762 3.819152 0.470675
5620.440000 5620.440000 3.280000 3298.540073 141.870491 3.901193 0.483647
5625.440000 5625.440000 3.290000 3317.252433 142.010242 3.944824 0.491356
5630.461000 5630.460000 3.300000 3326.257607 142.175217 3.990183 0.499723
5635.499000 5635.500000 3.310000 3331.841654 143.227834 4.064080 0.511258
5640.560000 5640.560000 3.330000 3345.172913 144.468251 4.143082 0.524130
5645.640000 5645.640000 3.340000 3358.883432 145.066144 4.205095 0.534143
5650.738000 5650.740000 3.350000 3360.848280 145.726321 4.269931 0.545213
5655.859000 5655.860000 3.360000 3375.045198 146.465045 4.337200 0.556684
5660.991000 5660.990000 3.380000 3390.089713 147.769222 4.423720 0.570680
5666.153000 5666.150000 3.390000 3397.900272 148.668903 4.498730 0.582740
5671.321000 5671.320000 3.400000 3410.888636 149.734642 4.579627 0.596670
5676.523000 5676.520000 3.410000 3420.561254 150.644541 4.654840 0.608811
5681.731000 5681.730000 3.430000 3432.031782 152.042163 4.746966 0.624250
5686.961000 5686.960000 3.440000 3438.890474 152.780520 4.818169 0.636941
5692.209000 5692.210000 3.450000 3451.585291 153.540793 4.890473 0.649938
5697.480000 5697.480000 3.460000 3463.385942 154.272079 4.960939 0.662091
5702.773000 5702.770000 3.480000 3478.643899 155.458485 5.040106 0.676365
5708.080000 5708.080000 3.490000 3496.210236 156.187285 5.098122 0.687475
