# XDI/1.0 BlueSky/1.5.0
# Beamline.name: 6BM
# Beamline.xray_source: NSLS-II three-pole wiggler
# Beamline.collimation: paraboloid mirror, 5 nm Rh on 30 nm Pt
# Beamline.focusing: not in use
# Beamline.harmonic_rejection: flat mirror, Si stripe, pitch = 7.0 mrad relative to beam
# Detector.i0: 10 cm N2
# Detector.i1: 25 cm N2
# Detector.i2: 25 cm N2
# Element.symbol: Ti
# Element.edge: K
# Facility.name: NSLS-II
# Facility.energy: 3.0
# Facility.current: 219.1
# Facility.mode: top-off
# Facility.gup: 301027
# Facility.saf: 304156
# Mono.name: Si(111)
# Mono.d_spacing: 3.1353241
# Mono.encoder_resolution: 0.0000050 deg/ct
# Mono.angle_offset: 16.0576931 deg
# Mono.scan_mode: pseudo channel cut
# Mono.scan_type: step
# Mono.direction: forward in energy
# Sample.name: Ti nitride
# Sample.prep: powder on tape
# Sample.x_position: -97.500 mm
# Sample.y_position: 115.250 mm
# Sample.wheel_position: 45.000 mm
# Scan.experimenters: Bruce Ravel
# Scan.edge_energy: 4966.0
# Scan.start_time: 2019-06-16T13:11:58
# Scan.end_time: 2019-06-16T15:40:46
# Scan.transient_id: 10612
# Scan.uid: 204f3191-beaf-4c1d-b181-097e120b6375
# Scan.plot_hint: ln(I0/It)  --  ln($5/$6)
# Scan.sequence: merge of 9 scans
# Column.1: energy eV
# Column.2: requested_energy eV
# Column.3: measurement_time seconds
# Column.4: mutrans
# Column.5: i0
# Column.6: itrans
# Column.7: irefer
# /////
#  TiN standard
# -----
# energy   requested_energy   measurement_time   mutrans   i0   itrans   irefer
4765.993000 4766.000000 0.500000 3.187610 8.262805 0.341010 0.022627
4776.019000 4776.000000 0.500000 3.163588 8.458384 0.357575 0.024370
4786.009000 4786.000000 0.500000 3.140175 8.669619 0.375180 0.026158
4796.005000 4796.000000 0.500000 3.116731 8.878955 0.393352 0.027729
4806.006000 4806.000000 0.500000 3.093536 9.092931 0.412284 0.029626
4815.995000 4816.000000 0.500000 3.070789 9.303597 0.431534 0.031437
4825.997000 4826.000000 0.500000 3.048227 9.519446 0.451624 0.033697
4836.002000 4836.000000 0.500000 3.025807 9.731486 0.472131 0.035765
4846.012000 4846.000000 0.500000 3.003240 9.955417 0.494058 0.038009
4856.002000 4856.000000 0.500000 2.981415 10.174945 0.516075 0.040490
4866.000000 4866.000000 0.500000 2.959307 10.402615 0.539417 0.043086
4876.000000 4876.000000 0.500000 2.937276 10.640236 0.564031 0.045596
4886.000000 4886.000000 0.500000 2.915851 10.866783 0.588516 0.048181
4896.002000 4896.000000 0.500000 2.894050 11.105887 0.614724 0.051370
4906.000000 4906.000000 0.500000 2.872550 11.333723 0.640970 0.054433
4916.000000 4916.000000 0.500000 2.851349 11.564335 0.668026 0.057565
4925.998000 4926.000000 0.500000 2.830558 11.801077 0.696021 0.060839
4935.995000 4936.000000 0.500000 2.809807 12.045311 0.725321 0.064490
4937.994000 4938.000000 0.500000 2.805804 12.087063 0.730758 0.065138
4939.994000 4940.000000 0.500000 2.801667 12.132448 0.736535 0.065901
4942.003000 4942.000000 0.500000 2.797508 12.194002 0.743368 0.066621
4943.999000 4944.000000 0.500000 2.793501 12.239000 0.749102 0.067296
4946.001000 4946.000000 0.500000 2.789661 12.280362 0.754530 0.067901
4947.997000 4948.000000 0.500000 2.785681 12.313078 0.759554 0.068530
4949.998000 4950.000000 0.500000 2.781667 12.359372 0.765480 0.069433
4951.998000 4952.000000 0.500000 2.777635 12.405514 0.771441 0.070042
4953.997000 4954.000000 0.500000 2.773847 12.443413 0.776736 0.070690
4955.999000 4956.000000 0.500000 2.769938 12.482593 0.782234 0.071176
4956.245000 4956.250000 0.500000 2.769660 12.489858 0.782908 0.071401
4956.494000 4956.500000 0.500000 2.769056 12.488231 0.783279 0.071435
4956.745000 4956.750000 0.500000 2.768499 12.490496 0.783859 0.071498
4956.995000 4957.000000 0.500000 2.767852 12.495892 0.784702 0.071461
4957.244000 4957.250000 0.500000 2.767751 12.498874 0.784970 0.071501
4957.494000 4957.500000 0.500000 2.767248 12.504285 0.785704 0.071638
4957.743000 4957.750000 0.500000 2.766686 12.520428 0.787158 0.071757
4957.994000 4958.000000 0.500000 2.766135 12.525912 0.787936 0.071805
4958.244000 4958.250000 0.500000 2.765690 12.544340 0.789449 0.072051
4958.496000 4958.500000 0.500000 2.765289 12.548345 0.790021 0.072045
4958.746000 4958.750000 0.500000 2.764831 12.554762 0.790786 0.072189
4958.997000 4959.000000 0.500000 2.764412 12.559843 0.791437 0.072182
4959.245000 4959.250000 0.500000 2.763950 12.565861 0.792179 0.072148
4959.496000 4959.500000 0.500000 2.763571 12.567182 0.792566 0.072208
4959.746000 4959.750000 0.500000 2.763289 12.571141 0.793038 0.072092
4959.995000 4960.000000 0.500000 2.762593 12.577044 0.793963 0.072276
4960.247000 4960.250000 0.500000 2.762318 12.580278 0.794386 0.072309
4960.496000 4960.500000 0.500000 2.761948 12.585575 0.795015 0.072312
4960.749000 4960.750000 0.500000 2.761456 12.591737 0.795802 0.072344
4960.998000 4961.000000 0.500000 2.760816 12.594368 0.796471 0.072337
4961.246000 4961.250000 0.500000 2.760536 12.600471 0.797081 0.072245
4961.495000 4961.500000 0.500000 2.760140 12.604584 0.797654 0.072289
4961.749000 4961.750000 0.500000 2.759683 12.608048 0.798243 0.072370
4961.997000 4962.000000 0.500000 2.759359 12.614285 0.798894 0.072202
4962.248000 4962.250000 0.500000 2.758995 12.620647 0.799590 0.072261
4962.498000 4962.500000 0.500000 2.758715 12.624915 0.800084 0.072119
4962.746000 4962.750000 0.500000 2.758409 12.630886 0.800707 0.071874
4962.999000 4963.000000 0.500000 2.758022 12.635140 0.801289 0.071710
4963.248000 4963.250000 0.500000 2.757481 12.644603 0.802318 0.071221
4963.495000 4963.500000 0.500000 2.757382 12.663235 0.803580 0.070889
4963.747000 4963.750000 0.500000 2.757072 12.668796 0.804182 0.069942
4963.996000 4964.000000 0.500000 2.756787 12.673532 0.804711 0.068714
4964.247000 4964.250000 0.500000 2.757082 12.675531 0.804604 0.066580
4964.497000 4964.500000 0.500000 2.756702 12.679298 0.805147 0.063394
4964.745000 4964.750000 0.500000 2.756988 12.682776 0.805140 0.058652
4964.999000 4965.000000 0.500000 2.757476 12.688332 0.805098 0.053893
4965.247000 4965.250000 0.500000 2.758234 12.692580 0.804762 0.050612
4965.499000 4965.500000 0.500000 2.759744 12.695561 0.803733 0.048937
4965.746000 4965.750000 0.500000 2.762156 12.700245 0.802113 0.049196
4965.997000 4966.000000 0.500000 2.764295 12.706859 0.800810 0.050599
4966.248000 4966.250000 0.500000 2.766408 12.709171 0.799248 0.052264
4966.498000 4966.500000 0.500000 2.768168 12.710133 0.797903 0.054186
4966.753000 4966.750000 0.500000 2.770192 12.712524 0.796408 0.055149
4967.000000 4967.000000 0.500000 2.772395 12.716267 0.794912 0.055879
4967.249000 4967.250000 0.500000 2.774555 12.718022 0.793313 0.055794
4967.500000 4967.500000 0.500000 2.776973 12.720870 0.791570 0.055494
4967.746000 4967.750000 0.500000 2.779529 12.728096 0.790029 0.054617
4967.999000 4968.000000 0.500000 2.782069 12.732711 0.788285 0.053791
4968.253000 4968.250000 0.500000 2.784360 12.735127 0.786606 0.052749
4968.498000 4968.500000 0.500000 2.786629 12.740969 0.785206 0.051710
4968.751000 4968.750000 0.500000 2.789316 12.741762 0.783135 0.050586
4969.000000 4969.000000 0.500000 2.791843 12.746010 0.781436 0.049849
4969.250000 4969.250000 0.500000 2.793986 12.746326 0.779786 0.049192
4969.498000 4969.500000 0.500000 2.796229 12.749754 0.778256 0.048554
4969.746000 4969.750000 0.500000 2.797719 12.749845 0.777108 0.048093
4969.998000 4970.000000 0.500000 2.798729 12.754923 0.776618 0.047723
4970.249000 4970.250000 0.500000 2.798830 12.761202 0.776921 0.047578
4970.501000 4970.500000 0.500000 2.798170 12.770519 0.778003 0.047553
4970.754000 4970.750000 0.500000 2.797718 12.781016 0.778991 0.047496
4971.001000 4971.000000 0.500000 2.797680 12.789097 0.779512 0.047166
4971.254000 4971.250000 0.500000 2.797923 12.794919 0.779661 0.046614
4971.499000 4971.500000 0.500000 2.799640 12.802338 0.778797 0.045990
4971.749000 4971.750000 0.500000 2.802263 12.807369 0.777058 0.045055
4972.003000 4972.000000 0.500000 2.806880 12.813357 0.773789 0.044228
4972.251000 4972.250000 0.500000 2.813099 12.816674 0.769187 0.042856
4972.500000 4972.500000 0.500000 2.821070 12.820134 0.763306 0.041616
4972.753000 4972.750000 0.500000 2.829965 12.824771 0.756790 0.040396
4973.003000 4973.000000 0.500000 2.839385 12.828653 0.749956 0.039184
4973.252000 4973.250000 0.500000 2.848724 12.833694 0.743295 0.037829
4973.499000 4973.500000 0.500000 2.857909 12.837580 0.736794 0.036718
4973.747000 4973.750000 0.500000 2.866815 12.838921 0.730352 0.035787
4974.001000 4974.000000 0.500000 2.874585 12.855749 0.725564 0.034936
4974.248000 4974.250000 0.500000 2.881856 12.860403 0.720606 0.033951
4974.501000 4974.500000 0.500000 2.888403 12.862883 0.716011 0.032982
4974.753000 4974.750000 0.500000 2.894376 12.865116 0.711841 0.032094
4975.002000 4975.000000 0.500000 2.899902 12.865683 0.707990 0.031341
4975.251000 4975.250000 0.500000 2.905108 12.868297 0.704447 0.030571
4975.500000 4975.500000 0.500000 2.910014 12.869035 0.701057 0.029929
4975.751000 4975.750000 0.500000 2.915041 12.867787 0.697455 0.029118
4975.999000 4976.000000 0.500000 2.919490 12.868383 0.694395 0.028596
4976.249000 4976.250000 0.500000 2.924436 12.870173 0.691074 0.027837
4976.503000 4976.500000 0.500000 2.929267 12.870818 0.687741 0.027214
4976.751000 4976.750000 0.500000 2.934795 12.871410 0.684021 0.026645
4977.003000 4977.000000 0.500000 2.940379 12.874032 0.680326 0.026265
4977.251000 4977.250000 0.500000 2.946762 12.873726 0.675988 0.025532
4977.498000 4977.500000 0.500000 2.953608 12.877413 0.671618 0.025272
4977.749000 4977.750000 0.500000 2.961033 12.881924 0.666856 0.024775
4978.000000 4978.000000 0.500000 2.968544 12.881641 0.661821 0.024208
4978.251000 4978.250000 0.500000 2.975671 12.887675 0.657423 0.023996
4978.503000 4978.500000 0.500000 2.983339 12.901956 0.653104 0.023577
4978.752000 4978.750000 0.500000 2.991716 12.903005 0.647739 0.023252
4979.003000 4979.000000 0.500000 3.000522 12.904785 0.642115 0.022975
4979.250000 4979.250000 0.500000 3.009580 12.918963 0.637058 0.022642
4979.499000 4979.500000 0.500000 3.020085 12.917844 0.630371 0.022466
4979.749000 4979.750000 0.500000 3.032012 12.929604 0.623451 0.021883
4980.000000 4980.000000 0.500000 3.043521 12.930371 0.616338 0.021646
4980.252000 4980.250000 0.500000 3.055665 12.929970 0.608894 0.021218
4980.502000 4980.500000 0.500000 3.067484 12.927656 0.601635 0.021022
4980.753000 4980.750000 0.500000 3.080208 12.927232 0.593984 0.020622
4981.000000 4981.000000 0.500000 3.092162 12.939233 0.587527 0.020333
4981.251000 4981.250000 0.500000 3.103573 12.941873 0.580917 0.020045
4981.500000 4981.500000 0.500000 3.114868 12.948509 0.574732 0.019811
4981.748000 4981.750000 0.500000 3.126257 12.947495 0.568211 0.019566
4981.999000 4982.000000 0.500000 3.137534 12.951048 0.561989 0.019078
4982.254000 4982.250000 0.500000 3.148368 12.953353 0.555950 0.018985
4982.503000 4982.500000 0.500000 3.158840 12.955327 0.550266 0.018632
4982.751000 4982.750000 0.500000 3.168495 12.958080 0.545119 0.018375
4983.003000 4983.000000 0.500000 3.176679 12.961794 0.540788 0.018182
4983.251000 4983.250000 0.500000 3.182728 12.963894 0.537637 0.018042
4983.498000 4983.500000 0.500000 3.185862 12.962444 0.535916 0.018065
4983.750000 4983.750000 0.500000 3.186458 12.963535 0.535629 0.018131
4984.000000 4984.000000 0.500000 3.183839 12.963198 0.537007 0.018062
4984.252000 4984.250000 0.500000 3.178634 12.963636 0.539836 0.018297
4984.501000 4984.500000 0.500000 3.171008 12.964762 0.543991 0.018571
4984.752000 4984.750000 0.500000 3.161800 12.968102 0.549212 0.018683
4985.003000 4985.000000 0.500000 3.151913 12.984709 0.555396 0.018894
4985.251000 4985.250000 0.500000 3.141815 12.987413 0.561116 0.019328
4985.499000 4985.500000 0.500000 3.131789 13.004725 0.567485 0.019508
4985.750000 4985.750000 0.500000 3.121740 13.006038 0.573295 0.020079
4986.001000 4986.000000 0.500000 3.112344 13.006578 0.578716 0.020234
4986.252000 4986.250000 0.500000 3.103973 13.007851 0.583656 0.020549
4986.500000 4986.500000 0.500000 3.095707 13.008758 0.588527 0.020799
4986.752000 4986.750000 0.500000 3.087748 13.008546 0.593274 0.021064
4987.000000 4987.000000 0.500000 3.080556 13.007949 0.597495 0.021225
4987.252000 4987.250000 0.500000 3.073634 13.007545 0.601650 0.021360
4987.499000 4987.500000 0.500000 3.067000 13.008320 0.605646 0.021669
4987.749000 4987.750000 0.500000 3.060457 13.008058 0.609605 0.021740
4988.001000 4988.000000 0.500000 3.054628 13.010896 0.613311 0.021880
4988.252000 4988.250000 0.500000 3.049025 13.019744 0.617200 0.022269
4988.503000 4988.500000 0.500000 3.044301 13.028547 0.620566 0.022311
4988.750000 4988.750000 0.500000 3.039904 13.037430 0.623699 0.022249
4989.002000 4989.000000 0.500000 3.035963 13.045884 0.626597 0.022579
4989.249000 4989.250000 0.500000 3.032799 13.057633 0.629114 0.022648
4989.500000 4989.500000 0.500000 3.030266 13.069353 0.631280 0.022658
4989.752000 4989.750000 0.500000 3.028119 13.080651 0.633191 0.022670
4990.001000 4990.000000 0.500000 3.026209 13.093771 0.635034 0.023002
4990.251000 4990.250000 0.500000 3.025480 13.103979 0.635998 0.023034
4990.501000 4990.500000 0.500000 3.024616 13.127089 0.637669 0.023149
4990.751000 4990.750000 0.500000 3.024521 13.140513 0.638380 0.023001
4991.001000 4991.000000 0.500000 3.025171 13.167524 0.639276 0.023017
4991.249000 4991.250000 0.500000 3.025965 13.178511 0.639307 0.023182
4991.501000 4991.500000 0.500000 3.027062 13.187393 0.639037 0.023352
4991.752000 4991.750000 0.500000 3.029016 13.196945 0.638248 0.023285
4992.002000 4992.000000 0.500000 3.031320 13.202960 0.637069 0.023239
4992.253000 4992.250000 0.500000 3.033920 13.211136 0.635788 0.023226
4992.502000 4992.500000 0.500000 3.037090 13.217957 0.634116 0.023154
4992.752000 4992.750000 0.500000 3.040348 13.223837 0.632325 0.023232
4993.000000 4993.000000 0.500000 3.044220 13.231660 0.630276 0.023039
4993.250000 4993.250000 0.500000 3.047432 13.235842 0.628462 0.023010
4993.503000 4993.500000 0.500000 3.051131 13.243689 0.626487 0.022945
4993.752000 4993.750000 0.500000 3.055142 13.249126 0.624244 0.022844
4994.006000 4994.000000 0.500000 3.058675 13.253153 0.622199 0.022775
4994.253000 4994.250000 0.500000 3.061994 13.255884 0.620285 0.022604
4994.502000 4994.500000 0.500000 3.064903 13.259516 0.618654 0.022361
4994.754000 4994.750000 0.500000 3.067827 13.264786 0.617089 0.022327
4994.999000 4995.000000 0.500000 3.069859 13.269051 0.616056 0.022288
4995.250000 4995.250000 0.500000 3.071703 13.272539 0.615089 0.022124
4995.501000 4995.500000 0.500000 3.073049 13.275282 0.614383 0.021958
4995.750000 4995.750000 0.500000 3.074128 13.279593 0.613919 0.021783
4996.004000 4996.000000 0.700000 3.074930 18.597510 0.859073 0.030261
4997.091000 4997.080000 0.710000 3.074808 18.878860 0.872177 0.030050
4998.193000 4998.180000 0.730000 3.069497 19.417843 0.901907 0.030073
4999.291000 4999.290000 0.740000 3.059907 19.702518 0.923861 0.030508
5000.438000 5000.430000 0.750000 3.047888 20.005740 0.949477 0.031304
5001.580000 5001.580000 0.760000 3.034656 20.322208 0.977265 0.032261
5002.762000 5002.760000 0.780000 3.020920 20.907512 1.019326 0.033943
5003.955000 5003.950000 0.790000 3.009281 21.231715 1.047294 0.035136
5005.163000 5005.160000 0.800000 2.999424 21.563979 1.074202 0.036454
5006.393000 5006.390000 0.810000 2.988932 21.899021 1.102395 0.038349
5007.646000 5007.640000 0.830000 2.975812 22.497170 1.147501 0.041223
5008.914000 5008.910000 0.840000 2.961208 22.825021 1.181329 0.043539
5010.203000 5010.200000 0.850000 2.948037 23.174799 1.215321 0.045415
5011.514000 5011.510000 0.860000 2.938377 23.507773 1.244766 0.047172
5012.832000 5012.830000 0.880000 2.932237 24.104688 1.284237 0.049204
5014.183000 5014.180000 0.890000 2.928466 24.431060 1.306545 0.050528
5015.545000 5015.540000 0.900000 2.924971 24.755790 1.328551 0.051684
5016.934000 5016.930000 0.910000 2.920005 25.090292 1.353207 0.053329
5018.332000 5018.330000 0.930000 2.914551 25.700830 1.393707 0.055443
5019.755000 5019.750000 0.940000 2.910758 26.041807 1.417571 0.056901
5021.194000 5021.190000 0.950000 2.909725 26.383974 1.437681 0.058295
5022.652000 5022.650000 0.960000 2.911977 26.728700 1.453193 0.059055
5024.131000 5024.130000 0.980000 2.916641 27.357569 1.480469 0.060269
5025.633000 5025.630000 0.990000 2.924411 27.708175 1.487828 0.060370
5027.143000 5027.140000 1.000000 2.934228 28.059351 1.491975 0.060257
5028.684000 5028.680000 1.010000 2.947118 28.412278 1.491378 0.059799
5030.241000 5030.240000 1.030000 2.962194 29.081477 1.503692 0.059602
5031.813000 5031.810000 1.040000 2.976609 29.435419 1.500195 0.058327
5033.402000 5033.400000 1.050000 2.985797 29.825997 1.506197 0.057382
5035.015000 5035.010000 1.060000 2.987140 30.189023 1.522484 0.056741
5036.658000 5036.650000 1.080000 2.980705 30.900563 1.568462 0.057492
5038.307000 5038.300000 1.090000 2.969798 31.280987 1.605166 0.058253
5039.976000 5039.970000 1.100000 2.959309 31.648023 1.641110 0.059765
5041.655000 5041.650000 1.110000 2.950431 32.022676 1.675348 0.061162
5043.365000 5043.360000 1.130000 2.940333 32.688766 1.727549 0.063685
5045.096000 5045.090000 1.140000 2.926522 33.068341 1.771958 0.066446
5046.835000 5046.830000 1.150000 2.910658 33.448147 1.820918 0.069752
5048.608000 5048.600000 1.160000 2.895038 33.838349 1.871180 0.073287
5050.389000 5050.380000 1.180000 2.882874 34.517753 1.932100 0.077442
5052.188000 5052.180000 1.190000 2.875650 34.910208 1.968223 0.081079
5054.007000 5054.000000 1.200000 2.873675 35.306785 1.994508 0.083493
5055.847000 5055.840000 1.210000 2.876425 35.731816 2.012962 0.085424
5057.709000 5057.700000 1.230000 2.881203 36.469747 2.044743 0.087336
5059.586000 5059.580000 1.240000 2.883630 36.887965 2.063218 0.088178
5061.488000 5061.480000 1.250000 2.880603 37.295881 2.092393 0.089926
5063.401000 5063.400000 1.260000 2.872628 37.708829 2.132470 0.092222
5065.331000 5065.330000 1.280000 2.862549 38.432962 2.195454 0.095908
5067.295000 5067.290000 1.290000 2.852203 38.856930 2.242816 0.098850
5069.253000 5069.260000 1.300000 2.842583 39.275097 2.288741 0.101368
5071.260000 5071.260000 1.310000 2.835086 39.700899 2.330997 0.103809
5073.274000 5073.270000 1.330000 2.830604 40.436828 2.384862 0.106463
5075.293000 5075.300000 1.340000 2.829330 40.860433 2.412900 0.107450
5077.339000 5077.350000 1.350000 2.832553 41.288918 2.430378 0.107255
5079.412000 5079.420000 1.360000 2.839673 41.720678 2.438367 0.106145
5081.504000 5081.510000 1.380000 2.846778 42.482750 2.465331 0.105673
5083.603000 5083.610000 1.390000 2.849668 42.920626 2.483543 0.104952
5085.732000 5085.740000 1.400000 2.846486 43.352776 2.516526 0.104405
5087.883000 5087.890000 1.410000 2.838737 43.811460 2.562954 0.104565
5090.044000 5090.050000 1.430000 2.826819 44.583689 2.639403 0.106948
5092.222000 5092.230000 1.440000 2.812556 45.022078 2.703614 0.110352
5094.436000 5094.440000 1.450000 2.799308 45.473157 2.767163 0.114791
5096.656000 5096.660000 1.460000 2.789784 45.913879 2.820694 0.119856
5098.898000 5098.900000 1.480000 2.784359 46.674173 2.883010 0.126441
5101.152000 5101.160000 1.490000 2.781888 47.125705 2.918087 0.131940
5103.436000 5103.440000 1.500000 2.780904 47.587559 2.949595 0.136599
5105.732000 5105.740000 1.510000 2.779987 48.044544 2.980648 0.140191
5108.046000 5108.050000 1.530000 2.777532 48.817781 3.036062 0.143492
5110.389000 5110.390000 1.540000 2.772225 49.277435 3.080956 0.146143
5112.739000 5112.740000 1.550000 2.765476 49.746912 3.131381 0.148783
5115.118000 5115.120000 1.560000 2.758491 50.205461 3.182377 0.151657
5117.510000 5117.510000 1.580000 2.752261 50.990054 3.252328 0.155378
5119.921000 5119.920000 1.590000 2.746645 51.463318 3.301007 0.158159
5122.350000 5122.350000 1.600000 2.741650 51.930711 3.347653 0.161411
5124.803000 5124.800000 1.610000 2.737448 52.398422 3.392033 0.164378
5127.273000 5127.270000 1.630000 2.734684 53.237890 3.455910 0.168777
5129.762000 5129.760000 1.640000 2.733511 53.724282 3.491576 0.171360
5132.272000 5132.270000 1.650000 2.733580 54.223183 3.523753 0.173513
5134.793000 5134.790000 1.660000 2.734476 54.723352 3.553077 0.175122
5137.343000 5137.340000 1.680000 2.735349 55.522659 3.601832 0.177267
5139.902000 5139.900000 1.690000 2.734947 55.993175 3.633814 0.177826
5142.492000 5142.490000 1.700000 2.731953 56.462579 3.675284 0.178848
5145.090000 5145.090000 1.710000 2.724638 56.925011 3.732568 0.180630
5147.713000 5147.710000 1.730000 2.713383 57.717761 3.827404 0.184551
5150.350000 5150.350000 1.740000 2.700677 58.233843 3.910960 0.188666
5153.010000 5153.010000 1.750000 2.688498 58.688518 3.989807 0.193988
5155.689000 5155.690000 1.760000 2.677397 59.152651 4.066239 0.199905
5158.393000 5158.390000 1.780000 2.667880 59.941236 4.159886 0.207291
5161.114000 5161.110000 1.790000 2.660138 60.380887 4.222970 0.213062
5163.842000 5163.840000 1.800000 2.653500 60.942486 4.290637 0.218644
5166.600000 5166.600000 1.810000 2.647096 61.400421 4.350628 0.223801
5169.372000 5169.370000 1.830000 2.641368 62.185099 4.431545 0.230169
5172.172000 5172.170000 1.840000 2.636728 62.625663 4.483706 0.235935
5174.983000 5174.980000 1.850000 2.633257 63.060902 4.530568 0.241249
5177.811000 5177.810000 1.860000 2.630101 63.491143 4.575883 0.246374
5180.662000 5180.660000 1.880000 2.626935 64.272938 4.646929 0.252146
5183.529000 5183.530000 1.890000 2.623359 64.723726 4.696263 0.255974
5186.422000 5186.420000 1.900000 2.619809 65.190569 4.746968 0.259792
5189.321000 5189.320000 1.910000 2.616183 65.637097 4.796857 0.263614
5192.248000 5192.250000 1.930000 2.612029 66.438256 4.875596 0.268679
5195.200000 5195.200000 1.940000 2.607864 66.888776 4.929144 0.272239
5198.161000 5198.160000 1.950000 2.604014 67.287908 4.977705 0.275677
5201.139000 5201.140000 1.960000 2.599945 67.707569 5.029157 0.278858
5204.151000 5204.150000 1.980000 2.594764 68.498465 5.114346 0.283818
5207.168000 5207.170000 1.990000 2.588168 68.971622 5.183729 0.287633
5210.211000 5210.210000 2.000000 2.581150 69.466620 5.257730 0.292203
5213.271000 5213.270000 2.010000 2.574500 69.928477 5.328001 0.296994
5216.351000 5216.350000 2.030000 2.569305 70.686506 5.413806 0.303347
5219.450000 5219.450000 2.040000 2.565381 71.116878 5.468172 0.308385
5222.562000 5222.560000 2.050000 2.560916 71.561071 5.526968 0.313751
5225.700000 5225.700000 2.060000 2.554427 71.981721 5.595628 0.319325
5228.851000 5228.850000 2.080000 2.546527 72.743468 5.699715 0.327365
5232.029000 5232.030000 2.090000 2.538818 73.182261 5.778426 0.333871
5235.220000 5235.220000 2.100000 2.531417 73.643745 5.858086 0.341043
5238.432000 5238.430000 2.110000 2.523622 74.083518 5.939182 0.348634
5241.659000 5241.660000 2.130000 2.515498 74.857600 6.050189 0.358387
5244.920000 5244.920000 2.140000 2.507468 75.243999 6.130434 0.366324
5248.179000 5248.180000 2.150000 2.500576 75.243232 6.172782 0.371605
5251.471000 5251.470000 2.160000 2.494898 75.751906 6.249894 0.379446
5254.779000 5254.780000 2.180000 2.489969 76.833415 6.370451 0.389798
5258.110000 5258.110000 2.190000 2.485376 77.370178 6.444487 0.397139
5261.453000 5261.450000 2.200000 2.480832 77.888096 6.517195 0.404019
5264.819000 5264.820000 2.210000 2.476106 78.391600 6.590357 0.410637
5268.202000 5268.200000 2.230000 2.471279 79.271727 6.696640 0.418966
5271.600000 5271.600000 2.240000 2.466794 79.823325 6.773519 0.425170
5275.033000 5275.030000 2.250000 2.462388 80.410524 6.853510 0.431281
5278.470000 5278.470000 2.260000 2.456895 79.951709 6.851894 0.432733
5281.930000 5281.930000 2.280000 2.450381 81.623274 7.040880 0.445751
5285.401000 5285.400000 2.290000 2.443812 82.225677 7.139586 0.453683
5288.903000 5288.900000 2.300000 2.437251 82.820910 7.238649 0.462014
5292.420000 5292.420000 2.310000 2.430555 83.329897 7.332020 0.471115
5295.961000 5295.960000 2.330000 2.423865 84.234800 7.461409 0.482536
5299.510000 5299.510000 2.340000 2.417768 84.725673 7.550783 0.491069
5303.092000 5303.090000 2.350000 2.411692 85.277602 7.646310 0.500707
5306.677000 5306.680000 2.360000 2.405468 85.783868 7.739654 0.509226
5310.289000 5310.290000 2.380000 2.398696 86.532173 7.860235 0.520309
5313.922000 5313.920000 2.390000 2.391558 87.011890 7.960492 0.529438
5317.570000 5317.570000 2.400000 2.384341 87.515516 8.064523 0.539913
5321.242000 5321.240000 2.410000 2.377525 88.015839 8.166107 0.550027
5324.932000 5324.930000 2.430000 2.370848 88.889497 8.302429 0.563128
5328.639000 5328.640000 2.440000 2.364178 89.400330 8.405970 0.573231
5332.360000 5332.360000 2.450000 2.357848 89.816991 8.498812 0.583915
5336.111000 5336.110000 2.460000 2.352012 90.292277 8.593808 0.594565
5339.870000 5339.870000 2.480000 2.346658 91.349955 8.741117 0.609387
5343.662000 5343.660000 2.490000 2.341725 91.956284 8.842674 0.620884
5347.462000 5347.460000 2.500000 2.336759 92.465371 8.935896 0.631374
5351.279000 5351.280000 2.510000 2.331941 92.871967 9.018492 0.640986
5355.121000 5355.120000 2.530000 2.326833 93.588773 9.134682 0.653052
5358.983000 5358.980000 2.540000 2.320844 94.167911 9.246462 0.664197
5362.859000 5362.860000 2.550000 2.313562 95.345977 9.430477 0.680127
5366.763000 5366.760000 2.560000 2.306142 95.960426 9.562007 0.692441
5370.681000 5370.680000 2.580000 2.298765 96.958660 9.732986 0.707671
5374.613000 5374.610000 2.590000 2.291622 97.595268 9.867128 0.720761
5378.568000 5378.570000 2.600000 2.284770 98.268613 10.003442 0.734828
5382.540000 5382.540000 2.610000 2.278274 98.972413 10.140788 0.749434
5386.541000 5386.540000 2.630000 2.271920 100.036085 10.315123 0.766623
5390.549000 5390.550000 2.640000 2.265385 100.670889 10.448590 0.781487
5394.579000 5394.580000 2.650000 2.258665 101.375239 10.592649 0.796813
5398.629000 5398.630000 2.660000 2.252028 101.907380 10.719149 0.811023
5402.701000 5402.700000 2.680000 2.245473 103.155316 10.921793 0.831418
5406.793000 5406.790000 2.690000 2.239052 103.738083 11.054307 0.846574
5410.902000 5410.900000 2.700000 2.232632 104.402070 11.196690 0.862574
5415.020000 5415.020000 2.710000 2.226142 105.295444 11.365975 0.881086
5419.169000 5419.170000 2.730000 2.219394 106.140811 11.534779 0.899801
5423.334000 5423.330000 2.740000 2.212560 107.041720 11.712572 0.919670
5427.522000 5427.520000 2.750000 2.205608 107.745793 11.871813 0.937849
5431.720000 5431.720000 2.760000 2.199024 108.407672 12.023592 0.955668
5435.941000 5435.940000 2.780000 2.192788 109.463785 12.216696 0.977579
5440.184000 5440.180000 2.790000 2.186755 110.172360 12.370256 0.996010
5444.441000 5444.440000 2.800000 2.180795 110.843778 12.519986 1.013697
5448.718000 5448.720000 2.810000 2.174558 111.468314 12.669233 1.031533
5453.020000 5453.020000 2.830000 2.168398 112.577471 12.874401 1.054362
5457.342000 5457.340000 2.840000 2.162331 113.288842 13.034633 1.073574
5461.673000 5461.670000 2.850000 2.156007 113.919148 13.190299 1.092407
5466.029000 5466.030000 2.860000 2.149577 114.496621 13.342620 1.110671
5470.400000 5470.400000 2.880000 2.143102 115.454887 13.541727 1.133890
5474.802000 5474.800000 2.890000 2.136540 115.963009 13.690918 1.152809
5479.211000 5479.210000 2.900000 2.129893 116.551026 13.852081 1.172942
5483.640000 5483.640000 2.910000 2.123137 117.001373 13.999848 1.192052
5488.092000 5488.090000 2.930000 2.116564 117.948470 14.206289 1.216677
5492.564000 5492.560000 2.940000 2.109910 118.315692 14.345699 1.236342
5497.053000 5497.050000 2.950000 2.103190 118.612868 14.478677 1.255228
5501.561000 5501.560000 2.960000 2.096369 118.906102 14.613758 1.274136
5506.079000 5506.080000 2.980000 2.089593 119.640567 14.803971 1.298094
5510.632000 5510.630000 2.990000 2.082606 119.843645 14.933179 1.316916
5515.189000 5515.190000 3.000000 2.075456 119.991410 15.058826 1.335851
5519.780000 5519.780000 3.010000 2.068358 120.128266 15.183385 1.355239
5524.379000 5524.380000 3.030000 2.061609 120.590928 15.345059 1.377522
5528.999000 5529.000000 3.040000 2.055177 120.704102 15.458586 1.396101
5533.644000 5533.640000 3.050000 2.048950 120.698535 15.554520 1.413538
5538.305000 5538.300000 3.060000 2.042784 120.651803 15.644698 1.430333
5542.983000 5542.980000 3.080000 2.036419 120.964352 15.785320 1.452335
5547.681000 5547.680000 3.090000 2.029858 120.886149 15.878920 1.469733
5552.399000 5552.400000 3.100000 2.023090 120.822893 15.978334 1.487209
5557.129000 5557.130000 3.110000 2.016262 120.720680 16.074238 1.505043
5561.893000 5561.890000 3.130000 2.009480 121.196855 16.247527 1.529972
5566.661000 5566.660000 3.140000 2.002922 121.250723 16.361696 1.549563
5571.462000 5571.460000 3.150000 1.996372 121.125878 16.452240 1.567620
5576.271000 5576.270000 3.160000 1.989613 120.965792 16.541915 1.585489
5581.102000 5581.100000 3.180000 1.982727 121.278634 16.699285 1.609810
5585.949000 5585.950000 3.190000 1.975690 121.238385 16.811554 1.630172
5590.819000 5590.820000 3.200000 1.968665 121.177823 16.921639 1.650435
5595.713000 5595.710000 3.210000 1.961832 121.145482 17.033195 1.671228
5600.623000 5600.620000 3.230000 1.955020 121.540080 17.205492 1.697979
5605.540000 5605.540000 3.240000 1.948106 121.669094 17.343199 1.721578
5610.490000 5610.490000 3.250000 1.941218 121.818144 17.484477 1.745973
5615.451000 5615.450000 3.260000 1.934321 122.034329 17.636714 1.771053
5620.441000 5620.440000 3.280000 1.927404 122.478279 17.823749 1.801103
5625.440000 5625.440000 3.290000 1.920442 122.057094 17.886508 1.818479
5630.460000 5630.460000 3.300000 1.913322 122.254918 18.043501 1.845477
5635.499000 5635.500000 3.310000 1.906529 122.426315 18.191942 1.872270
5640.559000 5640.560000 3.330000 1.900005 123.144768 18.418468 1.907198
5645.639000 5645.640000 3.340000 1.893407 123.506032 18.594795 1.937559
5650.742000 5650.740000 3.350000 1.886748 123.863617 18.773322 1.967595
5655.861000 5655.860000 3.360000 1.879931 124.466815 18.993763 2.002898
5660.989000 5660.990000 3.380000 1.873212 125.515843 19.282959 2.045762
5666.153000 5666.150000 3.390000 1.866443 126.075936 19.500646 2.081385
5671.322000 5671.320000 3.400000 1.859572 126.639637 19.722832 2.117523
5676.521000 5676.520000 3.410000 1.852653 127.388583 19.977217 2.157400
5681.731000 5681.730000 3.430000 1.845802 128.486995 20.287988 2.203999
5686.962000 5686.960000 3.440000 1.839093 129.110577 20.523704 2.242930
5692.209000 5692.210000 3.450000 1.832373 129.747160 20.763884 2.282654
5697.482000 5697.480000 3.460000 1.825612 130.394809 21.009135 2.323412
5702.769000 5702.770000 3.480000 1.818750 131.346175 21.308118 2.370695
5708.079000 5708.080000 3.490000 1.811949 131.969320 21.555272 2.412232
5713.401000 5713.400000 3.500000 1.805122 132.804603 21.840330 2.458912
5718.752000 5718.750000 3.510000 1.798266 133.452951 22.097965 2.502697
5724.122000 5724.120000 3.530000 1.791414 134.635416 22.447039 2.557480
5729.502000 5729.500000 3.540000 1.784538 135.309628 22.715123 2.603137
5734.903000 5734.900000 3.550000 1.777679 135.931372 22.976539 2.649398
5740.321000 5740.320000 3.560000 1.770767 136.564899 23.243699 2.695936
5745.770000 5745.770000 3.580000 1.763743 137.575388 23.580672 2.751920
5751.230000 5751.230000 3.590000 1.756929 138.271085 23.861959 2.801177
5756.700000 5756.700000 3.600000 1.750329 138.832047 24.117462 2.848173
5762.202000 5762.200000 3.610000 1.743712 139.704848 24.430225 2.902568
5767.720000 5767.720000 3.630000 1.737032 140.713376 24.771451 2.961339
5773.263000 5773.260000 3.640000 1.730395 141.283870 25.037588 3.010854
5778.808000 5778.810000 3.650000 1.723741 141.897355 25.314085 3.062630
5784.392000 5784.390000 3.660000 1.717006 142.400901 25.575659 3.113231
5789.981000 5789.980000 3.680000 1.710270 143.592435 25.963963 3.178882
5795.592000 5795.590000 3.690000 1.703545 144.247893 26.258449 3.234332
5801.220000 5801.220000 3.700000 1.696850 144.761633 26.528952 3.287247
5806.869000 5806.870000 3.710000 1.690088 145.302289 26.808693 3.341412
5812.543000 5812.540000 3.730000 1.683288 146.220448 27.162297 3.405204
5818.228000 5818.230000 3.740000 1.676521 146.797810 27.454602 3.462765
