# XDI/1.0 BlueSky/1.5.0
# Beamline.name: 6BM
# Beamline.xray_source: NSLS-II three-pole wiggler
# Beamline.collimation: paraboloid mirror, 5 nm Rh on 30 nm Pt
# Beamline.focusing: not in use
# Beamline.harmonic_rejection: flat mirror, Si stripe, pitch = 7.0 mrad relative to beam
# Detector.i0: 10 cm N2
# Detector.i1: 25 cm N2
# Detector.i2: 25 cm N2
# Element.symbol: Ti
# Element.edge: K
# Facility.name: NSLS-II
# Facility.energy: 3.0
# Facility.current: 219.8
# Facility.mode: top-off
# Facility.gup: 301027
# Facility.saf: 304156
# Mono.name: Si(111)
# Mono.d_spacing: 3.1352584
# Mono.encoder_resolution: 0.0000050 deg/ct
# Mono.angle_offset: 16.0571090 deg
# Mono.scan_mode: pseudo channel cut
# Mono.scan_type: step
# Mono.direction: forward in energy
# Sample.name: Ba1.2 Al2.4 Ti 5.6 O16
# Sample.prep: Powder in polyethylene glycol pellet
# Sample.x_position: -97.532 mm
# Sample.y_position: 117.543 mm
# Sample.wheel_position: -555.000 mm
# Scan.experimenters: Bruce Ravel, Martin Stennett
# Scan.edge_energy: 4966.0
# Scan.start_time: 2019-05-30T01:31:37
# Scan.end_time: 2019-05-30T02:14:24
# Scan.transient_id: 9779
# Scan.uid: fcdc081d-1def-417a-b5df-ca404ab65176
# Scan.plot_hint: ln(I0/It)  --  ln($5/$6)
# Scan.sequence: merge of 3 scans
# Column.1: energy eV
# Column.2: requested_energy eV
# Column.3: measurement_time seconds
# Column.4: mutrans
# Column.5: i0
# Column.6: itrans
# Column.7: irefer
# /////
#  sample disk prepared by Martin
# -----
# energy   requested_energy   measurement_time   mutrans   i0   itrans   irefer
4765.990000 4766.000000 0.500000 3.790129 11.069589 0.250123 0.020573
4776.008000 4776.000000 0.500000 3.773859 11.259750 0.258560 0.021526
4786.008000 4786.000000 0.500000 3.748198 11.485115 0.270591 0.022635
4796.010000 4796.000000 0.500000 3.722067 11.714277 0.283297 0.024191
4806.008000 4806.000000 0.500000 3.695172 11.944722 0.296744 0.025547
4816.007000 4816.000000 0.500000 3.669790 12.168178 0.310066 0.027005
4826.007000 4826.000000 0.500000 3.643599 12.394708 0.324214 0.028533
4836.008000 4836.000000 0.500000 3.617995 12.624423 0.338797 0.029909
4846.003000 4846.000000 0.500000 3.593244 12.853085 0.353572 0.031613
4856.009000 4856.000000 0.500000 3.567202 13.080223 0.369315 0.033689
4866.014000 4866.000000 0.500000 3.541933 13.302340 0.385205 0.035344
4876.002000 4876.000000 0.500000 3.516374 13.527102 0.401851 0.037493
4886.007000 4886.000000 0.500000 3.492634 13.745680 0.418156 0.039422
4896.005000 4896.000000 0.500000 3.467232 13.956883 0.435503 0.041511
4906.005000 4906.000000 0.500000 3.442754 14.164724 0.452942 0.043880
4916.003000 4916.000000 0.500000 3.418659 14.368871 0.470674 0.045711
4926.002000 4926.000000 0.500000 3.394296 14.573131 0.489137 0.048521
4936.001000 4936.000000 0.500000 3.370798 14.775575 0.507722 0.050481
4938.002000 4938.000000 0.500000 3.366531 14.809515 0.511068 0.051065
4939.999000 4940.000000 0.500000 3.361541 14.847523 0.514940 0.051620
4941.997000 4942.000000 0.500000 3.356870 14.885213 0.518659 0.052155
4944.007000 4944.000000 0.500000 3.352894 14.919895 0.521944 0.052595
4945.998000 4946.000000 0.500000 3.347825 14.952204 0.525726 0.053050
4948.007000 4948.000000 0.500000 3.342800 14.982591 0.529455 0.053827
4950.005000 4950.000000 0.500000 3.338821 15.018399 0.532838 0.054132
4952.005000 4952.000000 0.500000 3.333868 15.046984 0.536502 0.054622
4954.005000 4954.000000 0.500000 3.329807 15.080711 0.539894 0.054968
4956.005000 4956.000000 0.500000 3.325334 15.111053 0.543403 0.055423
4956.247000 4956.250000 0.500000 3.325133 15.111764 0.543539 0.055409
4956.496000 4956.500000 0.500000 3.324559 15.111223 0.543829 0.055258
4956.745000 4956.750000 0.500000 3.323750 15.117270 0.544487 0.055694
4956.995000 4957.000000 0.500000 3.323711 15.120424 0.544623 0.055351
4957.246000 4957.250000 0.500000 3.322919 15.122351 0.545122 0.055468
4957.495000 4957.500000 0.500000 3.322416 15.129486 0.545653 0.055615
4957.745000 4957.750000 0.500000 3.321975 15.167175 0.547255 0.055806
4957.995000 4958.000000 0.500000 3.320980 15.168966 0.547864 0.055774
4958.243000 4958.250000 0.500000 3.320958 15.175664 0.548117 0.055658
4958.496000 4958.500000 0.500000 3.320736 15.179221 0.548369 0.055796
4958.746000 4958.750000 0.500000 3.320060 15.183501 0.548895 0.055962
4958.996000 4959.000000 0.500000 3.319447 15.185683 0.549310 0.055938
4959.247000 4959.250000 0.500000 3.318991 15.188657 0.549667 0.055899
4959.499000 4959.500000 0.500000 3.318553 15.192194 0.550037 0.056132
4959.746000 4959.750000 0.500000 3.318022 15.194277 0.550403 0.056024
4959.995000 4960.000000 0.500000 3.317899 15.197532 0.550588 0.056132
4960.244000 4960.250000 0.500000 3.317375 15.201878 0.551034 0.056079
4960.497000 4960.500000 0.500000 3.316720 15.206963 0.551583 0.056292
4960.745000 4960.750000 0.500000 3.316475 15.211164 0.551867 0.056035
4960.998000 4961.000000 0.500000 3.316017 15.215032 0.552262 0.056148
4961.248000 4961.250000 0.500000 3.316355 15.219142 0.552225 0.055786
4961.497000 4961.500000 0.500000 3.315568 15.223241 0.552806 0.055876
4961.748000 4961.750000 0.500000 3.315120 15.227300 0.553203 0.055716
4961.996000 4962.000000 0.500000 3.314580 15.232145 0.553678 0.055829
4962.246000 4962.250000 0.500000 3.314713 15.236154 0.553751 0.055426
4962.497000 4962.500000 0.500000 3.313496 15.238214 0.554498 0.055741
4962.746000 4962.750000 0.500000 3.313713 15.243520 0.554574 0.055432
4962.998000 4963.000000 0.500000 3.313240 15.246820 0.554956 0.055277
4963.250000 4963.250000 0.500000 3.312342 15.253016 0.555679 0.055396
4963.495000 4963.500000 0.500000 3.312542 15.257532 0.555731 0.054732
4963.749000 4963.750000 0.500000 3.312298 15.261657 0.556018 0.053740
4963.995000 4964.000000 0.500000 3.312290 15.264460 0.556124 0.052626
4964.246000 4964.250000 0.500000 3.311690 15.269107 0.556626 0.051003
4964.500000 4964.500000 0.500000 3.311998 15.273719 0.556626 0.048053
4964.747000 4964.750000 0.500000 3.311913 15.276680 0.556778 0.044444
4964.998000 4965.000000 0.500000 3.311644 15.280627 0.557074 0.041090
4965.250000 4965.250000 0.500000 3.312438 15.284143 0.556760 0.038929
4965.499000 4965.500000 0.500000 3.312704 15.288174 0.556760 0.038360
4965.748000 4965.750000 0.500000 3.314306 15.313515 0.556792 0.038686
4965.997000 4966.000000 0.500000 3.315434 15.325347 0.556594 0.040270
4966.250000 4966.250000 0.500000 3.318643 15.330517 0.554983 0.041470
4966.497000 4966.500000 0.500000 3.323817 15.333580 0.552240 0.042753
4966.750000 4966.750000 0.500000 3.332743 15.330075 0.547190 0.042817
4967.003000 4967.000000 0.500000 3.341517 15.329538 0.542372 0.042915
4967.250000 4967.250000 0.500000 3.346693 15.332724 0.539724 0.042666
4967.501000 4967.500000 0.500000 3.344031 15.336307 0.541290 0.042570
4967.748000 4967.750000 0.500000 3.338230 15.344340 0.544712 0.042295
4967.999000 4968.000000 0.500000 3.335549 15.350342 0.546390 0.041922
4968.247000 4968.250000 0.500000 3.339674 15.352824 0.544248 0.040844
4968.496000 4968.500000 0.500000 3.349527 15.356156 0.539058 0.039946
4968.750000 4968.750000 0.500000 3.368112 15.359001 0.529156 0.038513
4968.999000 4969.000000 0.500000 3.392437 15.359582 0.516525 0.037188
4969.251000 4969.250000 0.500000 3.413045 15.357369 0.505913 0.036144
4969.500000 4969.500000 0.500000 3.424397 15.357997 0.500202 0.035191
4969.749000 4969.750000 0.500000 3.425008 15.373757 0.500405 0.035018
4969.999000 4970.000000 0.500000 3.419663 15.397088 0.503846 0.035113
4970.248000 4970.250000 0.500000 3.413177 15.407564 0.507438 0.035259
4970.501000 4970.500000 0.500000 3.404053 15.415588 0.512411 0.035407
4970.750000 4970.750000 0.500000 3.392058 15.426335 0.518949 0.035636
4971.004000 4971.000000 0.500000 3.379644 15.436919 0.525790 0.035749
4971.253000 4971.250000 0.500000 3.368517 15.445202 0.531965 0.035917
4971.501000 4971.500000 0.500000 3.361222 15.452722 0.536088 0.035703
4971.748000 4971.750000 0.500000 3.358978 15.452331 0.537284 0.034979
4971.998000 4972.000000 0.500000 3.361399 15.455533 0.536101 0.034221
4972.252000 4972.250000 0.500000 3.367967 15.461593 0.532778 0.033663
4972.499000 4972.500000 0.500000 3.375887 15.463436 0.528657 0.032771
4972.751000 4972.750000 0.500000 3.383123 15.466520 0.524950 0.031642
4973.001000 4973.000000 0.500000 3.386256 15.467880 0.523365 0.030987
4973.251000 4973.250000 0.500000 3.386665 15.472333 0.523295 0.030539
4973.499000 4973.500000 0.500000 3.385274 15.476322 0.524149 0.029552
4973.748000 4973.750000 0.500000 3.382949 15.477964 0.525428 0.029383
4973.999000 4974.000000 0.500000 3.381508 15.477556 0.526176 0.028871
4974.251000 4974.250000 0.500000 3.381690 15.478616 0.526115 0.028193
4974.503000 4974.500000 0.500000 3.384023 15.481788 0.524984 0.027619
4974.751000 4974.750000 0.500000 3.387968 15.484504 0.523019 0.027398
4975.002000 4975.000000 0.500000 3.394181 15.483997 0.519762 0.026472
4975.250000 4975.250000 0.500000 3.401657 15.486101 0.515987 0.025640
4975.501000 4975.500000 0.500000 3.409299 15.488672 0.512128 0.025494
4975.750000 4975.750000 0.500000 3.419096 15.482834 0.506972 0.024403
4976.000000 4976.000000 0.500000 3.429501 15.483541 0.501715 0.023830
4976.251000 4976.250000 0.500000 3.441409 15.480165 0.495651 0.023100
4976.504000 4976.500000 0.500000 3.454618 15.478762 0.489067 0.022456
4976.752000 4976.750000 0.500000 3.470695 15.478983 0.481326 0.021821
4977.001000 4977.000000 0.500000 3.490064 15.479954 0.472159 0.021056
4977.251000 4977.250000 0.500000 3.510693 15.482744 0.462566 0.020433
4977.500000 4977.500000 0.500000 3.533608 15.484157 0.452170 0.019915
4977.750000 4977.750000 0.500000 3.557909 15.486279 0.441350 0.019560
4978.002000 4978.000000 0.500000 3.583608 15.488891 0.430196 0.018679
4978.253000 4978.250000 0.500000 3.607396 15.490288 0.420057 0.018294
4978.501000 4978.500000 0.500000 3.630559 15.492254 0.410619 0.017622
4978.753000 4978.750000 0.500000 3.649906 15.495328 0.402753 0.017683
4979.000000 4979.000000 0.500000 3.666694 15.492729 0.396034 0.016954
4979.249000 4979.250000 0.500000 3.680113 15.492813 0.390774 0.016845
4979.502000 4979.500000 0.500000 3.691746 15.489198 0.386110 0.016620
4979.750000 4979.750000 0.500000 3.703244 15.485882 0.381620 0.016281
4980.000000 4980.000000 0.500000 3.714965 15.482129 0.377105 0.016106
4980.252000 4980.250000 0.500000 3.725523 15.483353 0.373167 0.015850
4980.500000 4980.500000 0.500000 3.736070 15.482067 0.369244 0.015706
4980.751000 4980.750000 0.500000 3.746161 15.480486 0.365471 0.015449
4980.999000 4981.000000 0.500000 3.757478 15.477860 0.361340 0.015393
4981.254000 4981.250000 0.500000 3.769513 15.475131 0.356847 0.015236
4981.502000 4981.500000 0.500000 3.783003 15.475033 0.352096 0.015048
4981.752000 4981.750000 0.500000 3.798188 15.476756 0.346831 0.014572
4982.001000 4982.000000 0.500000 3.816015 15.479499 0.340812 0.014483
4982.253000 4982.250000 0.500000 3.834496 15.481984 0.334575 0.014309
4982.501000 4982.500000 0.500000 3.854095 15.484868 0.328202 0.013891
4982.750000 4982.750000 0.500000 3.874463 15.484991 0.321572 0.013349
4983.000000 4983.000000 0.500000 3.893985 15.485548 0.315365 0.013277
4983.252000 4983.250000 0.500000 3.913019 15.485193 0.309355 0.013130
4983.503000 4983.500000 0.500000 3.929732 15.483809 0.304201 0.013024
4983.753000 4983.750000 0.500000 3.945626 15.481401 0.299384 0.012913
4984.001000 4984.000000 0.500000 3.961576 15.479576 0.294649 0.012631
4984.252000 4984.250000 0.500000 3.977484 15.479440 0.289998 0.012362
4984.499000 4984.500000 0.500000 3.992171 15.478641 0.285770 0.012419
4984.748000 4984.750000 0.500000 4.005284 15.478681 0.282053 0.012224
4985.000000 4985.000000 0.500000 4.019913 15.481091 0.277957 0.012037
4985.252000 4985.250000 0.500000 4.031304 15.481695 0.274806 0.012182
4985.503000 4985.500000 0.500000 4.042506 15.482978 0.271757 0.011845
4985.752000 4985.750000 0.500000 4.052631 15.481839 0.269030 0.011978
4986.002000 4986.000000 0.500000 4.060309 15.481735 0.266963 0.012073
4986.251000 4986.250000 0.500000 4.068466 15.483005 0.264825 0.011892
4986.500000 4986.500000 0.500000 4.075134 15.477378 0.262969 0.011913
4986.749000 4986.750000 0.500000 4.080476 15.476561 0.261562 0.011997
4987.001000 4987.000000 0.500000 4.085998 15.470888 0.260007 0.011954
4987.254000 4987.250000 0.500000 4.089899 15.480490 0.259155 0.011964
4987.504000 4987.500000 0.500000 4.094295 15.500972 0.258357 0.011910
4987.751000 4987.750000 0.500000 4.097391 15.503231 0.257608 0.012018
4988.002000 4988.000000 0.500000 4.102053 15.508062 0.256483 0.012026
4988.251000 4988.250000 0.500000 4.104889 15.514203 0.255867 0.011865
4988.502000 4988.500000 0.500000 4.108657 15.522187 0.255025 0.011671
4988.751000 4988.750000 0.500000 4.112531 15.529806 0.254162 0.011595
4989.003000 4989.000000 0.500000 4.116316 15.540770 0.253383 0.011737
4989.253000 4989.250000 0.500000 4.118229 15.553667 0.253104 0.011617
4989.504000 4989.500000 0.500000 4.121372 15.564355 0.252487 0.011769
4989.750000 4989.750000 0.500000 4.123166 15.581180 0.252310 0.011700
4990.004000 4990.000000 0.500000 4.122654 15.592758 0.252626 0.011854
4990.249000 4990.250000 0.500000 4.121719 15.602598 0.253021 0.011810
4990.500000 4990.500000 0.500000 4.119400 15.613425 0.253784 0.011898
4990.750000 4990.750000 0.500000 4.114775 15.624478 0.255144 0.011977
4991.001000 4991.000000 0.500000 4.109299 15.635124 0.256722 0.011795
4991.255000 4991.250000 0.500000 4.102671 15.645826 0.258626 0.012317
4991.500000 4991.500000 0.500000 4.094349 15.653348 0.260875 0.012272
4991.752000 4991.750000 0.500000 4.085168 15.661222 0.263419 0.012331
4991.998000 4992.000000 0.500000 4.074227 15.672667 0.266490 0.012548
4992.251000 4992.250000 0.500000 4.063269 15.680962 0.269575 0.012406
4992.501000 4992.500000 0.500000 4.052258 15.685083 0.272660 0.012678
4992.753000 4992.750000 0.500000 4.040648 15.691551 0.275971 0.012729
4993.002000 4993.000000 0.500000 4.030828 15.692280 0.278703 0.012714
4993.254000 4993.250000 0.500000 4.020062 15.698226 0.281836 0.013090
4993.501000 4993.500000 0.500000 4.011392 15.704413 0.284358 0.013200
4993.750000 4993.750000 0.500000 4.002538 15.710578 0.287003 0.013119
4994.000000 4994.000000 0.500000 3.994862 15.712746 0.289250 0.013179
4994.248000 4994.250000 0.500000 3.987887 15.715400 0.291326 0.013181
4994.501000 4994.500000 0.500000 3.983054 15.718211 0.292811 0.013290
4994.753000 4994.750000 0.500000 3.978220 15.722953 0.294326 0.013237
4995.002000 4995.000000 0.500000 3.974562 15.727278 0.295477 0.013449
4995.249000 4995.250000 0.500000 3.972670 15.755062 0.296554 0.013269
4995.502000 4995.500000 0.500000 3.971426 15.754026 0.296909 0.013400
4995.752000 4995.750000 0.500000 3.971987 15.754751 0.296755 0.013232
4996.000000 4996.000000 0.700000 3.974243 22.025617 0.413941 0.018014
4997.093000 4997.080000 0.710000 3.986301 22.383672 0.415620 0.017962
4998.184000 4998.180000 0.730000 4.003734 23.019830 0.420037 0.017847
4999.293000 4999.290000 0.740000 4.021204 23.347021 0.418657 0.017876
5000.438000 5000.430000 0.750000 4.035359 23.695371 0.418915 0.017646
5001.586000 5001.580000 0.760000 4.042700 24.052944 0.422132 0.017709
5002.766000 5002.760000 0.780000 4.039344 24.787704 0.436486 0.018485
5003.958000 5003.950000 0.790000 4.021493 25.156400 0.450973 0.019307
5005.166000 5005.160000 0.800000 3.991768 25.537312 0.471591 0.020172
5006.398000 5006.390000 0.810000 3.959004 25.924918 0.494713 0.021450
5007.648000 5007.640000 0.830000 3.932656 26.625322 0.521644 0.023341
5008.916000 5008.910000 0.840000 3.910153 26.994930 0.540900 0.024428
5010.206000 5010.200000 0.850000 3.879722 27.373372 0.565427 0.025865
5011.518000 5011.510000 0.860000 3.851583 27.755112 0.589701 0.027324
5012.837000 5012.830000 0.880000 3.834725 28.439965 0.614519 0.028599
5014.185000 5014.180000 0.890000 3.825872 28.807111 0.627976 0.029387
5015.548000 5015.540000 0.900000 3.824666 29.180513 0.636885 0.029716
5016.938000 5016.930000 0.910000 3.825886 29.560011 0.644383 0.030519
5018.337000 5018.330000 0.930000 3.825443 30.264130 0.660026 0.031741
5019.759000 5019.750000 0.940000 3.819990 30.649657 0.672100 0.032137
5021.190000 5021.190000 0.950000 3.810700 31.032465 0.686825 0.033406
5022.658000 5022.650000 0.960000 3.800736 31.425602 0.702509 0.034203
5024.138000 5024.130000 0.980000 3.793169 32.140807 0.723941 0.034981
5025.637000 5025.630000 0.990000 3.785748 32.534264 0.738264 0.035704
5027.136000 5027.140000 1.000000 3.779808 32.923859 0.751542 0.036274
5028.681000 5028.680000 1.010000 3.777116 33.321787 0.762686 0.036460
5030.237000 5030.240000 1.030000 3.774895 34.042097 0.780901 0.036849
5031.816000 5031.810000 1.040000 3.774187 34.437914 0.790548 0.036550
5033.407000 5033.400000 1.050000 3.775273 34.843785 0.798990 0.036361
5035.017000 5035.010000 1.060000 3.778697 35.235835 0.805224 0.035819
5036.650000 5036.650000 1.080000 3.785195 35.973970 0.816758 0.035849
5038.294000 5038.300000 1.090000 3.793965 36.376648 0.818703 0.035887
5039.964000 5039.970000 1.100000 3.803637 36.776523 0.819744 0.036082
5041.648000 5041.650000 1.110000 3.810671 37.188964 0.823114 0.036178
5043.356000 5043.360000 1.130000 3.813883 37.928261 0.836789 0.037022
5045.087000 5045.090000 1.140000 3.813509 38.344712 0.846291 0.038158
5046.829000 5046.830000 1.150000 3.811599 38.754461 0.856975 0.039187
5048.601000 5048.600000 1.160000 3.807801 39.176907 0.869615 0.040717
5050.380000 5050.380000 1.180000 3.802986 39.936698 0.890755 0.042645
5052.178000 5052.180000 1.190000 3.798732 40.359511 0.904019 0.043940
5053.999000 5054.000000 1.200000 3.794555 40.787233 0.917424 0.045332
5055.836000 5055.840000 1.210000 3.790773 41.212641 0.930501 0.046771
5057.698000 5057.700000 1.230000 3.786990 41.988575 0.951617 0.047767
5059.575000 5059.580000 1.240000 3.782791 42.424144 0.965530 0.048473
5061.476000 5061.480000 1.250000 3.778811 42.859935 0.979343 0.049267
5063.397000 5063.400000 1.260000 3.774500 43.305357 0.993796 0.050648
5065.326000 5065.330000 1.280000 3.770309 44.098109 1.016236 0.052109
5067.283000 5067.290000 1.290000 3.764386 44.547646 1.032685 0.053153
5069.259000 5069.260000 1.300000 3.758873 45.005489 1.049084 0.054059
5071.256000 5071.260000 1.310000 3.752549 45.468273 1.066589 0.055064
5073.270000 5073.270000 1.330000 3.744810 46.275764 1.093971 0.056756
5075.296000 5075.300000 1.340000 3.737304 46.729341 1.113003 0.057895
5077.351000 5077.350000 1.350000 3.731227 47.196571 1.130999 0.057936
5079.420000 5079.420000 1.360000 3.724860 47.766166 1.151951 0.057989
5081.511000 5081.510000 1.380000 3.718360 48.590392 1.179479 0.058688
5083.607000 5083.610000 1.390000 3.711939 49.061266 1.198568 0.058723
5085.744000 5085.740000 1.400000 3.705117 49.537957 1.218511 0.058680
5087.889000 5087.890000 1.410000 3.696467 50.013932 1.240892 0.058992
5090.050000 5090.050000 1.430000 3.687561 50.851683 1.272967 0.059900
5092.231000 5092.230000 1.440000 3.677797 51.348330 1.298026 0.061639
5094.443000 5094.440000 1.450000 3.667855 51.863740 1.324149 0.063529
5096.661000 5096.660000 1.460000 3.658228 52.354877 1.349611 0.066095
5098.901000 5098.900000 1.480000 3.649059 53.214214 1.384400 0.070090
5101.163000 5101.160000 1.490000 3.640359 53.715805 1.409672 0.073239
5103.439000 5103.440000 1.500000 3.632760 54.225790 1.433895 0.075998
5105.744000 5105.740000 1.510000 3.625863 54.854334 1.460566 0.078672
5108.051000 5108.050000 1.530000 3.620605 55.742380 1.492028 0.080594
5110.389000 5110.390000 1.540000 3.616255 56.249895 1.512169 0.081488
5112.740000 5112.740000 1.550000 3.612727 56.767976 1.531494 0.082798
5115.122000 5115.120000 1.560000 3.609982 57.275212 1.549431 0.084055
5117.514000 5117.510000 1.580000 3.607802 58.161157 1.576832 0.085785
5119.922000 5119.920000 1.590000 3.605561 58.686802 1.594653 0.087082
5122.351000 5122.350000 1.600000 3.603678 59.202281 1.611690 0.087845
5124.798000 5124.800000 1.610000 3.601774 59.732352 1.629216 0.089490
5127.271000 5127.270000 1.630000 3.600201 60.645583 1.656729 0.091477
5129.761000 5129.760000 1.640000 3.597739 61.223670 1.676645 0.092947
5132.272000 5132.270000 1.650000 3.594418 61.875240 1.700128 0.094514
5134.793000 5134.790000 1.660000 3.590496 62.424471 1.721963 0.095508
5137.339000 5137.340000 1.680000 3.585913 63.359689 1.755781 0.097487
5139.899000 5139.900000 1.690000 3.580889 63.938613 1.780745 0.098356
5142.491000 5142.490000 1.700000 3.575738 64.507980 1.805881 0.099001
5145.091000 5145.090000 1.710000 3.569904 65.078636 1.832524 0.100024
5147.714000 5147.710000 1.730000 3.563433 66.029884 1.871394 0.101873
5150.349000 5150.350000 1.740000 3.556741 66.621908 1.900831 0.103380
5153.011000 5153.010000 1.750000 3.548862 67.199137 1.932467 0.105853
5155.693000 5155.690000 1.760000 3.540999 67.794158 1.964974 0.108359
5158.392000 5158.390000 1.780000 3.532809 68.760734 2.009387 0.112343
5161.109000 5161.110000 1.790000 3.524954 69.339926 2.042270 0.115457
5163.841000 5163.840000 1.800000 3.517219 69.953929 2.076358 0.118103
5166.602000 5166.600000 1.810000 3.509775 70.560167 2.110014 0.121178
5169.372000 5169.370000 1.830000 3.502858 71.543577 2.154272 0.124778
5172.171000 5172.170000 1.840000 3.496026 72.142039 2.187167 0.128350
5174.983000 5174.980000 1.850000 3.489554 72.736109 2.219510 0.131573
5177.810000 5177.810000 1.860000 3.483366 73.331933 2.251587 0.134282
5180.657000 5180.660000 1.880000 3.477155 74.335849 2.296601 0.138111
5183.531000 5183.530000 1.890000 3.471207 74.968955 2.330000 0.140409
5186.420000 5186.420000 1.900000 3.465208 75.575768 2.362993 0.143141
5189.319000 5189.320000 1.910000 3.459060 76.192511 2.396958 0.145340
5192.252000 5192.250000 1.930000 3.452759 77.194138 2.443828 0.148484
5195.200000 5195.200000 1.940000 3.446526 77.786654 2.477979 0.151020
5198.162000 5198.160000 1.950000 3.440575 78.354002 2.510954 0.153012
5201.142000 5201.140000 1.960000 3.434450 78.979743 2.546571 0.155490
5204.147000 5204.150000 1.980000 3.428302 80.026600 2.596213 0.158847
5207.171000 5207.170000 1.990000 3.421706 80.644868 2.633594 0.160761
5210.209000 5210.210000 2.000000 3.415678 81.280970 2.670419 0.162935
5213.271000 5213.270000 2.010000 3.408710 81.902177 2.709639 0.165670
5216.352000 5216.350000 2.030000 3.401900 82.947819 2.762996 0.170064
5219.449000 5219.450000 2.040000 3.395486 83.631953 2.803692 0.173690
5222.559000 5222.560000 2.050000 3.389506 84.435095 2.847592 0.177049
5225.697000 5225.700000 2.060000 3.383788 85.097099 2.886375 0.180589
5228.851000 5228.850000 2.080000 3.378686 86.162415 2.937471 0.184750
5232.029000 5232.030000 2.090000 3.374022 86.830589 2.974083 0.187979
5235.221000 5235.220000 2.100000 3.371031 87.533270 3.007134 0.191285
5238.430000 5238.430000 2.110000 3.370415 88.215017 3.032412 0.194119
5241.660000 5241.660000 2.130000 3.377427 89.312894 3.048713 0.196913
5244.921000 5244.920000 2.140000 3.419920 89.948606 2.942517 0.191982
5248.181000 5248.180000 2.150000 3.699843 90.090985 2.227852 0.148304
5251.471000 5251.470000 2.160000 3.679557 91.166089 2.300674 0.154692
5254.782000 5254.780000 2.180000 3.470615 92.630577 2.880564 0.192860
5258.110000 5258.110000 2.190000 3.469398 93.480649 2.910596 0.195986
5261.451000 5261.450000 2.200000 3.464036 94.210241 2.949075 0.199454
5264.820000 5264.820000 2.210000 3.470881 95.001131 2.953554 0.200473
5268.201000 5268.200000 2.230000 3.469296 96.237259 2.996728 0.203886
5271.599000 5271.600000 2.240000 3.468334 96.983604 3.022872 0.206738
5275.031000 5275.030000 2.250000 3.460884 97.893109 3.074035 0.210903
5278.468000 5278.470000 2.260000 3.442211 97.790402 3.128671 0.214926
5281.931000 5281.930000 2.280000 3.429312 99.879748 3.237002 0.222575
5285.398000 5285.400000 2.290000 3.423229 100.755487 3.285323 0.226834
5288.902000 5288.900000 2.300000 3.418204 101.516961 3.326838 0.230758
5292.422000 5292.420000 2.310000 3.410763 102.298077 3.377493 0.235680
5295.962000 5295.960000 2.330000 3.402223 103.565457 3.448643 0.241316
5299.512000 5299.510000 2.340000 3.397523 104.269344 3.488435 0.245779
5303.090000 5303.090000 2.350000 3.393336 105.029038 3.528604 0.249568
5306.681000 5306.680000 2.360000 3.386781 105.882211 3.580650 0.255126
5310.290000 5310.290000 2.380000 3.379839 107.154939 3.648950 0.260728
5313.923000 5313.920000 2.390000 3.371197 107.947708 3.707848 0.266549
5317.571000 5317.570000 2.400000 3.363682 108.725434 3.762724 0.272122
5321.237000 5321.240000 2.410000 3.356283 109.327153 3.811640 0.277242
5324.933000 5324.930000 2.430000 3.349346 110.407537 3.876123 0.283559
5328.640000 5328.640000 2.440000 3.341306 110.965593 3.927156 0.288369
5332.361000 5332.360000 2.450000 3.331366 111.645125 3.990678 0.295549
5336.112000 5336.110000 2.460000 3.323579 112.483809 4.052080 0.301409
5339.869000 5339.870000 2.480000 3.317987 113.749072 4.120634 0.308768
5343.659000 5343.660000 2.490000 3.311947 114.499566 4.172949 0.314683
5347.461000 5347.460000 2.500000 3.305189 115.113285 4.223762 0.320751
5351.279000 5351.280000 2.510000 3.300528 115.609441 4.261800 0.325131
5355.121000 5355.120000 2.530000 3.292963 116.128282 4.313429 0.330912
5358.982000 5358.980000 2.540000 3.288405 117.757292 4.393921 0.338517
5362.859000 5362.860000 2.550000 3.279075 118.443106 4.460934 0.344981
5366.760000 5366.760000 2.560000 3.270238 119.013875 4.522222 0.350960
5370.681000 5370.680000 2.580000 3.262869 120.017225 4.594068 0.357909
5374.608000 5374.610000 2.590000 3.256028 120.905458 4.659837 0.363975
5378.571000 5378.570000 2.600000 3.248957 121.474203 4.714988 0.370101
5382.542000 5382.540000 2.610000 3.242069 122.052123 4.770161 0.376835
5386.537000 5386.540000 2.630000 3.234438 123.046320 4.845842 0.384581
5390.550000 5390.550000 2.640000 3.226619 123.487666 4.901419 0.391696
5394.580000 5394.580000 2.650000 3.218893 124.060754 4.962345 0.398691
5398.629000 5398.630000 2.660000 3.211150 124.273190 5.009484 0.404692
5402.699000 5402.700000 2.680000 3.203352 125.449400 5.096491 0.413739
5406.794000 5406.790000 2.690000 3.195630 125.933679 5.155835 0.420595
5410.903000 5410.900000 2.700000 3.187968 126.328776 5.211783 0.428267
5415.019000 5415.020000 2.710000 3.180444 126.821901 5.271629 0.435943
5419.168000 5419.170000 2.730000 3.173405 127.197673 5.324585 0.442410
5423.329000 5423.330000 2.740000 3.166283 127.912986 5.392806 0.451051
5427.518000 5427.520000 2.750000 3.158779 128.361315 5.452453 0.458764
5431.720000 5431.720000 2.760000 3.151012 129.051378 5.524533 0.467470
5435.941000 5435.940000 2.780000 3.143255 130.043532 5.610354 0.477326
5440.181000 5440.180000 2.790000 3.135257 130.532761 5.676677 0.486301
5444.440000 5444.440000 2.800000 3.127383 131.046572 5.744087 0.494554
5448.719000 5448.720000 2.810000 3.119731 131.565955 5.811146 0.503146
5453.021000 5453.020000 2.830000 3.112046 132.629913 5.903333 0.513576
5457.341000 5457.340000 2.840000 3.104540 133.215422 5.974064 0.522183
5461.668000 5461.670000 2.850000 3.097183 133.889273 6.048617 0.531662
5466.030000 5466.030000 2.860000 3.089503 134.532258 6.124527 0.541201
5470.401000 5470.400000 2.880000 3.081827 135.708216 6.225665 0.552456
5474.802000 5474.800000 2.890000 3.074131 136.415852 6.306489 0.562906
5479.209000 5479.210000 2.900000 3.066429 137.134258 6.388694 0.573552
5483.640000 5483.640000 2.910000 3.058658 137.879817 6.473560 0.583756
5488.091000 5488.090000 2.930000 3.050653 139.070927 6.581956 0.597041
5492.560000 5492.560000 2.940000 3.043002 139.874036 6.670795 0.608331
5497.051000 5497.050000 2.950000 3.034843 140.653004 6.762904 0.620062
5501.557000 5501.560000 2.960000 3.026945 141.413680 6.853377 0.632159
5506.080000 5506.080000 2.980000 3.019258 142.677918 6.968035 0.645518
5510.632000 5510.630000 2.990000 3.011500 143.499955 7.062749 0.658216
5515.194000 5515.190000 3.000000 3.003767 144.390475 7.161772 0.670876
5519.779000 5519.780000 3.010000 2.996015 145.225822 7.259231 0.683903
5524.380000 5524.380000 3.030000 2.988072 146.882499 7.400613 0.700924
5528.999000 5529.000000 3.040000 2.980412 147.891573 7.508739 0.715635
5533.641000 5533.640000 3.050000 2.972653 148.793670 7.613385 0.729671
5538.300000 5538.300000 3.060000 2.964684 149.677836 7.719884 0.744381
5542.980000 5542.980000 3.080000 2.957283 151.054836 7.848790 0.760828
5547.680000 5547.680000 3.090000 2.949387 152.012344 7.961169 0.775517
5552.399000 5552.400000 3.100000 2.941580 152.928131 8.071903 0.791355
5557.132000 5557.130000 3.110000 2.933538 154.251321 8.207484 0.809069
5561.891000 5561.890000 3.130000 2.925852 155.648462 8.345708 0.827453
5566.661000 5566.660000 3.140000 2.917948 156.548971 8.460602 0.843143
5571.461000 5571.460000 3.150000 2.910115 157.493403 8.578576 0.859624
5576.268000 5576.270000 3.160000 2.902223 158.360661 8.694146 0.875492
5581.100000 5581.100000 3.180000 2.894212 159.796024 8.843529 0.895152
5585.949000 5585.950000 3.190000 2.886467 161.055896 8.982566 0.915204
5590.819000 5590.820000 3.200000 2.878623 161.958750 9.104036 0.932311
5595.712000 5595.710000 3.210000 2.870679 162.869505 9.228273 0.949679
5600.621000 5600.620000 3.230000 2.862707 164.279584 9.382658 0.971207
5605.541000 5605.540000 3.240000 2.854998 165.154570 9.505621 0.989708
5610.490000 5610.490000 3.250000 2.847979 166.090273 9.626807 1.007898
5615.451000 5615.450000 3.260000 2.843064 166.997160 9.727060 1.023791
5620.438000 5620.440000 3.280000 2.851675 168.312683 9.719634 1.029544
5625.438000 5625.440000 3.290000 3.063418 168.356110 7.867189 0.840651
5630.459000 5630.460000 3.300000 2.898478 169.137797 9.320715 0.999742
5635.499000 5635.500000 3.310000 2.881455 169.547840 9.503690 1.024794
5640.560000 5640.560000 3.330000 2.876617 171.062461 9.635082 1.045210
5645.641000 5645.640000 3.340000 2.874207 171.724892 9.695745 1.057846
5650.742000 5650.740000 3.350000 2.868856 172.381686 9.785061 1.074233
5655.860000 5655.860000 3.360000 2.853001 173.278297 9.993095 1.102904
5660.990000 5660.990000 3.380000 2.843621 174.694106 10.169711 1.128727
5666.150000 5666.150000 3.390000 2.836739 175.768211 10.302918 1.150549
5671.321000 5671.320000 3.400000 2.827742 176.845815 10.459772 1.174026
5676.521000 5676.520000 3.410000 2.820823 178.063465 10.604934 1.197437
5681.730000 5681.730000 3.430000 2.814407 179.653541 10.768495 1.222238
5686.959000 5686.960000 3.440000 2.806839 180.987621 10.930861 1.247727
5692.210000 5692.210000 3.450000 2.798064 181.813818 11.077556 1.272447
5697.479000 5697.480000 3.460000 2.790396 182.677990 11.215875 1.294765
5702.770000 5702.770000 3.480000 2.781791 184.178374 11.405710 1.324464
5708.080000 5708.080000 3.490000 2.772959 185.158631 11.568150 1.350940
