# XDI/1.0 BlueSky/1.5.0
# Beamline.name: 6BM
# Beamline.xray_source: NSLS-II three-pole wiggler
# Beamline.collimation: paraboloid mirror, 5 nm Rh on 30 nm Pt
# Beamline.focusing: not in use
# Beamline.harmonic_rejection: flat mirror, Si stripe, pitch = 7.0 mrad relative to beam
# Detector.i0: 10 cm N2
# Detector.i1: 25 cm N2
# Detector.i2: 25 cm N2
# Element.symbol: Ti
# Element.edge: K
# Facility.name: NSLS-II
# Facility.energy: 3.0
# Facility.current: 220.6
# Facility.mode: top-off
# Facility.gup: 301027
# Facility.saf: 304156
# Mono.name: Si(111)
# Mono.d_spacing: 3.1352584
# Mono.encoder_resolution: 0.0000050 deg/ct
# Mono.angle_offset: 16.0571090 deg
# Mono.scan_mode: pseudo channel cut
# Mono.scan_type: step
# Mono.direction: forward in energy
# Sample.name: SrCe2Ti4O12
# Sample.prep: Powder in polyethylene glycol pellet
# Sample.x_position: -113.290 mm
# Sample.y_position: 117.505 mm
# Sample.wheel_position: 210.000 mm
# Scan.experimenters: Bruce Ravel, Martin Stennett
# Scan.edge_energy: 4966.0
# Scan.start_time: 2019-05-30T20:15:37
# Scan.end_time: 2019-05-30T20:59:44
# Scan.transient_id: 9855
# Scan.uid: 55fd094d-76d9-4c09-aad5-c0774c73065d
# Scan.plot_hint: (DTC1 + DTC2 + DTC3 + DTC4) / I0  --  ($8+$9+$10+$11) / $5
# Scan.sequence: merge of 3 scans
# Column.1: energy eV
# Column.2: requested_energy eV
# Column.3: measurement_time seconds
# Column.4: mutrans
# Column.5: i0
# Column.6: itrans
# Column.7: irefer
# /////
#  sample disk prepared by Martin
# -----
# energy   requested_energy   measurement_time   mutrans   i0   itrans   irefer
4765.997000 4766.000000 0.500000 79.850814 10.706643 0.031181 0.005012
4776.006000 4776.000000 0.500000 77.280491 10.930194 0.032292 0.004796
4786.013000 4786.000000 0.500000 70.195117 11.194285 0.034338 0.005049
4796.009000 4796.000000 0.500000 69.267898 11.456423 0.036518 0.005185
4806.006000 4806.000000 0.500000 65.129133 11.721407 0.039002 0.005680
4816.006000 4816.000000 0.500000 63.077469 11.979462 0.041389 0.005879
4826.007000 4826.000000 0.500000 61.327733 12.244920 0.043962 0.006110
4836.004000 4836.000000 0.500000 56.586445 12.486191 0.046830 0.006607
4845.998000 4846.000000 0.500000 50.893028 12.744926 0.049449 0.007185
4855.998000 4856.000000 0.500000 47.748758 13.006586 0.052716 0.007442
4866.008000 4866.000000 0.500000 44.510897 13.266132 0.055583 0.007832
4876.009000 4876.000000 0.500000 41.127102 13.529301 0.059030 0.008230
4886.005000 4886.000000 0.500000 39.418164 13.791204 0.062467 0.008752
4896.005000 4896.000000 0.500000 37.410695 14.055088 0.065931 0.009182
4906.002000 4906.000000 0.500000 33.362050 14.321405 0.069724 0.009609
4916.005000 4916.000000 0.500000 31.906003 14.583262 0.073577 0.010360
4926.000000 4926.000000 0.500000 30.165086 14.846169 0.077766 0.010992
4935.999000 4936.000000 0.500000 30.021776 15.097358 0.081793 0.011522
4937.999000 4938.000000 0.500000 29.773107 15.144847 0.082683 0.011723
4939.996000 4940.000000 0.500000 28.423263 15.194139 0.083683 0.011920
4941.994000 4942.000000 0.500000 29.395898 15.237481 0.084072 0.011786
4943.992000 4944.000000 0.500000 31.179007 15.281073 0.085290 0.012019
4945.999000 4946.000000 0.500000 29.691516 15.323782 0.086142 0.012380
4948.004000 4948.000000 0.500000 31.046810 15.362596 0.087052 0.012539
4950.003000 4950.000000 0.500000 31.259984 15.408804 0.087507 0.012247
4952.002000 4952.000000 0.500000 32.922418 15.452812 0.088665 0.012494
4954.004000 4954.000000 0.500000 32.069907 15.495805 0.089366 0.012697
4956.000000 4956.000000 0.500000 34.002092 15.537963 0.090066 0.012681
4956.246000 4956.250000 0.500000 33.103309 15.539796 0.090429 0.012914
4956.497000 4956.500000 0.500000 33.196640 15.540258 0.090262 0.012740
4956.743000 4956.750000 0.500000 33.221863 15.544483 0.090531 0.012822
4956.996000 4957.000000 0.500000 33.244442 15.546802 0.090616 0.012766
4957.245000 4957.250000 0.500000 33.533370 15.549038 0.090428 0.012637
4957.492000 4957.500000 0.500000 34.492458 15.553850 0.090577 0.012777
4957.744000 4957.750000 0.500000 34.373287 15.559704 0.090837 0.012673
4957.995000 4958.000000 0.500000 34.539907 15.561902 0.090730 0.012732
4958.245000 4958.250000 0.500000 35.481737 15.564964 0.090996 0.012876
4958.495000 4958.500000 0.500000 34.705862 15.567905 0.091093 0.013013
4958.744000 4958.750000 0.500000 35.623486 15.575299 0.091285 0.013000
4958.993000 4959.000000 0.500000 34.664643 15.578212 0.091149 0.012842
4959.245000 4959.250000 0.500000 34.540372 15.581624 0.091281 0.012717
4959.496000 4959.500000 0.500000 35.805100 15.584924 0.091671 0.013072
4959.744000 4959.750000 0.500000 35.663198 15.588944 0.091511 0.012932
4959.996000 4960.000000 0.500000 37.517281 15.592702 0.091914 0.013174
4960.246000 4960.250000 0.500000 37.429152 15.596685 0.091707 0.012951
4960.498000 4960.500000 0.500000 36.491028 15.601449 0.091845 0.013069
4960.744000 4960.750000 0.500000 37.896889 15.606114 0.092086 0.013140
4960.996000 4961.000000 0.500000 38.234534 15.611852 0.091822 0.012644
4961.246000 4961.250000 0.500000 36.840406 15.616854 0.091920 0.012831
4961.495000 4961.500000 0.500000 39.689105 15.618514 0.092159 0.012874
4961.747000 4961.750000 0.500000 39.173407 15.624156 0.092328 0.012905
4961.995000 4962.000000 0.500000 39.222495 15.628143 0.092424 0.013065
4962.246000 4962.250000 0.500000 40.026617 15.632084 0.092479 0.012996
4962.500000 4962.500000 0.500000 39.390945 15.636790 0.092532 0.012911
4962.746000 4962.750000 0.500000 40.988021 15.641905 0.092766 0.012923
4962.998000 4963.000000 0.500000 41.692184 15.648169 0.092754 0.012834
4963.247000 4963.250000 0.500000 43.597240 15.651872 0.092797 0.012746
4963.494000 4963.500000 0.500000 43.404735 15.654288 0.092975 0.012751
4963.750000 4963.750000 0.500000 44.995944 15.661551 0.092911 0.012493
4963.997000 4964.000000 0.500000 44.001384 15.666026 0.093210 0.012476
4964.249000 4964.250000 0.500000 47.263369 15.672079 0.093192 0.012106
4964.499000 4964.500000 0.500000 47.712487 15.674605 0.093438 0.011749
4964.746000 4964.750000 0.500000 48.732929 15.677803 0.093374 0.011345
4964.998000 4965.000000 0.500000 48.146994 15.681480 0.093297 0.010432
4965.247000 4965.250000 0.500000 53.279273 15.686229 0.093268 0.009515
4965.498000 4965.500000 0.500000 55.312824 15.691537 0.093251 0.009280
4965.748000 4965.750000 0.500000 60.091175 15.695782 0.093424 0.009204
4965.996000 4966.000000 0.500000 66.564056 15.700228 0.093439 0.009552
4966.250000 4966.250000 0.500000 73.194638 15.705163 0.093027 0.009610
4966.498000 4966.500000 0.500000 82.925022 15.708883 0.093001 0.009831
4966.749000 4966.750000 0.500000 95.530622 15.711747 0.092729 0.010289
4966.999000 4967.000000 0.500000 111.244944 15.713136 0.092348 0.010579
4967.247000 4967.250000 0.500000 126.967172 15.713894 0.091787 0.010284
4967.501000 4967.500000 0.500000 138.696862 15.718150 0.091417 0.010310
4967.749000 4967.750000 0.500000 144.206511 15.725293 0.091505 0.010123
4968.000000 4968.000000 0.500000 142.544906 15.732615 0.091557 0.010009
4968.252000 4968.250000 0.500000 153.557869 15.771638 0.091918 0.009928
4968.501000 4968.500000 0.500000 168.888970 15.779084 0.091316 0.009680
4968.751000 4968.750000 0.500000 191.591048 15.782261 0.090822 0.009750
4968.997000 4969.000000 0.500000 222.636780 15.782949 0.089881 0.009413
4969.249000 4969.250000 0.500000 258.334310 15.787371 0.089078 0.009235
4969.497000 4969.500000 0.500000 279.259156 15.860751 0.089082 0.009287
4969.748000 4969.750000 0.500000 280.328733 15.862765 0.088785 0.008882
4970.001000 4970.000000 0.500000 274.356338 15.864267 0.089059 0.008959
4970.250000 4970.250000 0.500000 268.294515 15.870469 0.089609 0.009134
4970.503000 4970.500000 0.500000 262.783035 15.882537 0.089708 0.009026
4970.747000 4970.750000 0.500000 262.169627 15.893315 0.089835 0.008987
4971.000000 4971.000000 0.500000 260.093460 15.903500 0.090044 0.008797
4971.249000 4971.250000 0.500000 256.669810 15.910759 0.090058 0.008734
4971.500000 4971.500000 0.500000 264.938550 15.917782 0.090114 0.008670
4971.751000 4971.750000 0.500000 276.143436 15.926658 0.089750 0.008672
4972.003000 4972.000000 0.500000 296.645241 15.931141 0.089618 0.008678
4972.251000 4972.250000 0.500000 320.444496 15.933216 0.088733 0.008231
4972.502000 4972.500000 0.500000 338.355073 15.939392 0.088357 0.008234
4972.751000 4972.750000 0.500000 356.628090 15.943293 0.087666 0.007739
4972.999000 4973.000000 0.500000 362.848010 15.948672 0.087764 0.007939
4973.247000 4973.250000 0.500000 370.289369 15.952537 0.087640 0.007706
4973.501000 4973.500000 0.500000 372.325452 15.954468 0.087656 0.007396
4973.752000 4973.750000 0.500000 371.081629 15.958076 0.087883 0.007485
4974.003000 4974.000000 0.500000 369.561009 15.961078 0.088009 0.007222
4974.250000 4974.250000 0.500000 361.414813 15.963228 0.088170 0.007152
4974.500000 4974.500000 0.500000 356.925177 15.964068 0.088896 0.007559
4974.749000 4974.750000 0.500000 346.973973 15.965757 0.089102 0.007119
4975.001000 4975.000000 0.500000 337.316892 15.968158 0.089148 0.006890
4975.247000 4975.250000 0.500000 334.042318 15.969725 0.089490 0.006881
4975.503000 4975.500000 0.500000 335.999235 15.972228 0.089710 0.006854
4975.754000 4975.750000 0.500000 335.799341 15.969871 0.089390 0.006527
4976.002000 4976.000000 0.500000 346.744752 15.969099 0.089312 0.006663
4976.252000 4976.250000 0.500000 355.561110 15.970298 0.089388 0.006645
4976.503000 4976.500000 0.500000 370.187954 15.968278 0.089002 0.006473
4976.748000 4976.750000 0.500000 384.687441 15.968302 0.088767 0.006416
4977.002000 4977.000000 0.500000 404.236511 15.968283 0.087838 0.006080
4977.251000 4977.250000 0.500000 426.033661 15.971061 0.087466 0.006106
4977.504000 4977.500000 0.500000 453.386014 15.971426 0.086941 0.006126
4977.753000 4977.750000 0.500000 477.990184 15.975002 0.086096 0.006025
4978.002000 4978.000000 0.500000 508.621890 15.976748 0.085052 0.005689
4978.248000 4978.250000 0.500000 549.900024 15.980377 0.084136 0.005683
4978.499000 4978.500000 0.500000 597.874751 15.985096 0.083210 0.006002
4978.751000 4978.750000 0.500000 644.841391 15.986371 0.081492 0.005424
4979.002000 4979.000000 0.500000 709.205042 15.986062 0.079958 0.005493
4979.254000 4979.250000 0.500000 773.204661 15.986671 0.078382 0.005408
4979.501000 4979.500000 0.500000 841.601450 15.986984 0.076520 0.005238
4979.753000 4979.750000 0.500000 903.533350 15.986012 0.074772 0.005270
4980.001000 4980.000000 0.500000 993.886862 15.980808 0.072533 0.005106
4980.250000 4980.250000 0.500000 1081.134787 15.979295 0.070256 0.004813
4980.498000 4980.500000 0.500000 1174.719802 15.977833 0.068194 0.004889
4980.751000 4980.750000 0.500000 1274.762695 15.973590 0.065835 0.004912
4981.002000 4981.000000 0.500000 1388.549783 15.974440 0.062928 0.004638
4981.254000 4981.250000 0.500000 1510.138816 15.973879 0.060504 0.004461
4981.501000 4981.500000 0.500000 1612.187562 15.972612 0.057987 0.004468
4981.749000 4981.750000 0.500000 1751.800759 15.975457 0.055336 0.004218
4981.999000 4982.000000 0.500000 1863.050526 15.978834 0.052875 0.004124
4982.250000 4982.250000 0.500000 1986.092996 15.981164 0.050654 0.004070
4982.499000 4982.500000 0.500000 2092.211802 15.986178 0.048507 0.003829
4982.752000 4982.750000 0.500000 2179.962054 15.987375 0.046792 0.003639
4983.004000 4983.000000 0.500000 2253.673090 15.989500 0.045312 0.003813
4983.253000 4983.250000 0.500000 2308.647647 15.990409 0.044459 0.003748
4983.500000 4983.500000 0.500000 2330.937448 15.989215 0.043831 0.003638
4983.752000 4983.750000 0.500000 2355.645494 15.990127 0.043770 0.003765
4984.002000 4984.000000 0.500000 2369.634845 15.986893 0.043868 0.003555
4984.251000 4984.250000 0.500000 2344.450925 15.986229 0.044249 0.003782
4984.502000 4984.500000 0.500000 2323.020379 15.986854 0.044615 0.003620
4984.750000 4984.750000 0.500000 2289.342093 15.986050 0.045252 0.003782
4985.001000 4985.000000 0.500000 2251.665213 15.987577 0.045966 0.003663
4985.253000 4985.250000 0.500000 2226.380620 15.991046 0.046457 0.003816
4985.500000 4985.500000 0.500000 2199.241915 15.992713 0.046960 0.003708
4985.751000 4985.750000 0.500000 2165.339625 15.992273 0.047763 0.004052
4986.001000 4986.000000 0.500000 2143.103913 15.994318 0.048274 0.003933
4986.253000 4986.250000 0.500000 2117.887668 15.994456 0.048829 0.003954
4986.502000 4986.500000 0.500000 2083.262161 15.991752 0.049158 0.003966
4986.753000 4986.750000 0.500000 2070.374533 15.989303 0.049590 0.003991
4987.003000 4987.000000 0.500000 2043.318327 15.986657 0.049904 0.003925
4987.251000 4987.250000 0.500000 2056.815793 15.986898 0.050301 0.004075
4987.500000 4987.500000 0.500000 2042.038797 15.983200 0.050475 0.004221
4987.752000 4987.750000 0.500000 2042.088942 15.981815 0.050518 0.004223
4988.002000 4988.000000 0.500000 2049.689937 15.985468 0.050216 0.003980
4988.253000 4988.250000 0.500000 2047.737243 15.991100 0.050485 0.004165
4988.501000 4988.500000 0.500000 2050.270893 15.998236 0.050306 0.003958
4988.753000 4988.750000 0.500000 2066.436800 16.008749 0.050128 0.004142
4989.002000 4989.000000 0.500000 2072.017938 16.022068 0.050089 0.004044
4989.250000 4989.250000 0.500000 2093.139889 16.032422 0.050088 0.003844
4989.502000 4989.500000 0.500000 2096.984061 16.045319 0.049965 0.004184
4989.748000 4989.750000 0.500000 2114.377500 16.058544 0.049748 0.004239
4990.003000 4990.000000 0.500000 2126.684122 16.070478 0.049643 0.004135
4990.250000 4990.250000 0.500000 2141.057048 16.084285 0.049518 0.004156
4990.503000 4990.500000 0.500000 2153.176200 16.095901 0.049207 0.004012
4990.751000 4990.750000 0.500000 2160.277422 16.109786 0.049195 0.004181
4991.001000 4991.000000 0.500000 2171.758312 16.120134 0.049037 0.004237
4991.249000 4991.250000 0.500000 2186.702907 16.131398 0.048678 0.003935
4991.500000 4991.500000 0.500000 2214.148671 16.142954 0.048721 0.004218
4991.751000 4991.750000 0.500000 2214.998755 16.154326 0.048420 0.004306
4992.001000 4992.000000 0.500000 2242.720293 16.163462 0.048124 0.003987
4992.253000 4992.250000 0.500000 2248.392918 16.172868 0.047993 0.004006
4992.501000 4992.500000 0.500000 2263.449810 16.178817 0.047770 0.003960
4992.751000 4992.750000 0.500000 2269.378030 16.188276 0.047785 0.004211
4992.999000 4993.000000 0.500000 2293.854755 16.194964 0.047366 0.004027
4993.251000 4993.250000 0.500000 2294.654234 16.200301 0.047498 0.004377
4993.500000 4993.500000 0.500000 2316.827655 16.205412 0.047323 0.004095
4993.754000 4993.750000 0.500000 2318.531537 16.211549 0.047370 0.004241
4994.002000 4994.000000 0.500000 2317.055927 16.217131 0.047288 0.004056
4994.256000 4994.250000 0.500000 2326.381931 16.221554 0.047062 0.003891
4994.503000 4994.500000 0.500000 2316.603521 16.226758 0.047104 0.003941
4994.751000 4994.750000 0.500000 2323.431297 16.232805 0.047206 0.004060
4995.000000 4995.000000 0.500000 2317.830885 16.236365 0.047184 0.003969
4995.252000 4995.250000 0.500000 2328.073748 16.239086 0.047249 0.003887
4995.502000 4995.500000 0.500000 2328.307210 16.243665 0.047352 0.003948
4995.752000 4995.750000 0.500000 2334.641148 16.247446 0.047631 0.004007
4996.004000 4996.000000 0.700000 2328.222143 22.756249 0.066672 0.005610
4997.092000 4997.080000 0.710000 2325.074299 23.151976 0.068239 0.005281
4998.188000 4998.180000 0.730000 2288.531957 23.808856 0.071257 0.005550
4999.301000 4999.290000 0.740000 2275.145234 24.195365 0.073382 0.005771
5000.437000 5000.430000 0.750000 2248.556996 24.561663 0.075785 0.005939
5001.590000 5001.580000 0.760000 2213.343768 25.002121 0.078217 0.005945
5002.770000 5002.760000 0.780000 2184.938342 25.715721 0.081659 0.006126
5003.954000 5003.950000 0.790000 2149.719124 26.108844 0.084477 0.006523
5005.166000 5005.160000 0.800000 2100.927038 26.509107 0.087963 0.006662
5006.399000 5006.390000 0.810000 2048.422838 26.913142 0.092101 0.007270
5007.643000 5007.640000 0.830000 1985.735543 27.644715 0.096562 0.007217
5008.916000 5008.910000 0.840000 1949.547696 28.041272 0.100190 0.007933
5010.205000 5010.200000 0.850000 1890.313305 28.440035 0.104470 0.008309
5011.514000 5011.510000 0.860000 1835.943596 28.836002 0.108646 0.008674
5012.836000 5012.830000 0.880000 1807.803484 29.563438 0.113154 0.008469
5014.188000 5014.180000 0.890000 1783.533481 29.952047 0.116541 0.008811
5015.547000 5015.540000 0.900000 1759.869965 30.342149 0.119352 0.009156
5016.934000 5016.930000 0.910000 1774.211881 30.740763 0.121485 0.009354
5018.334000 5018.330000 0.930000 1771.616130 31.477451 0.124813 0.009797
5019.755000 5019.750000 0.940000 1776.364533 31.883383 0.127143 0.009858
5021.194000 5021.190000 0.950000 1756.120071 32.289700 0.130288 0.010204
5022.656000 5022.650000 0.960000 1745.431959 32.694389 0.133373 0.010321
5024.136000 5024.130000 0.980000 1753.437968 33.445722 0.137403 0.011008
5025.631000 5025.630000 0.990000 1760.224657 33.851692 0.139053 0.010571
5027.143000 5027.140000 1.000000 1770.586490 34.260376 0.141214 0.010929
5028.682000 5028.680000 1.010000 1786.668754 34.672916 0.143301 0.011217
5030.240000 5030.240000 1.030000 1784.931912 35.421927 0.146950 0.011159
5031.812000 5031.810000 1.040000 1789.398327 35.830390 0.149236 0.010999
5033.404000 5033.400000 1.050000 1802.114452 36.243571 0.151570 0.011255
5035.014000 5035.010000 1.060000 1819.414997 36.656230 0.153360 0.011061
5036.656000 5036.650000 1.080000 1850.460678 37.419176 0.155753 0.011171
5038.304000 5038.300000 1.090000 1879.106420 37.839916 0.156559 0.011236
5039.964000 5039.970000 1.100000 1920.013217 38.255183 0.157315 0.011300
5041.647000 5041.650000 1.110000 1946.215163 38.677195 0.158648 0.011457
5043.356000 5043.360000 1.130000 1958.816945 39.439878 0.162831 0.011668
5045.090000 5045.090000 1.140000 1953.478546 39.864055 0.165461 0.011843
5046.826000 5046.830000 1.150000 1948.863298 40.282348 0.168733 0.012387
5048.596000 5048.600000 1.160000 1949.035557 40.711682 0.171696 0.012946
5050.376000 5050.380000 1.180000 1970.762178 41.490561 0.174588 0.013013
5052.176000 5052.180000 1.190000 2012.792524 41.915323 0.175079 0.013274
5053.997000 5054.000000 1.200000 2055.143991 42.345197 0.176060 0.013738
5055.835000 5055.840000 1.210000 2094.826734 42.780494 0.177246 0.014300
5057.693000 5057.700000 1.230000 2117.417797 43.575602 0.179913 0.014075
5059.576000 5059.580000 1.240000 2127.417846 44.019010 0.182658 0.014570
5061.473000 5061.480000 1.250000 2117.109514 44.459320 0.186134 0.014831
5063.396000 5063.400000 1.260000 2100.843495 44.905093 0.190908 0.015158
5065.327000 5065.330000 1.280000 2075.539573 45.714539 0.197747 0.015732
5067.285000 5067.290000 1.290000 2046.154158 46.160207 0.202944 0.016027
5069.256000 5069.260000 1.300000 2018.905330 46.606344 0.208210 0.016561
5071.255000 5071.260000 1.310000 2028.228916 47.053054 0.212552 0.017022
5073.269000 5073.270000 1.330000 2028.822447 47.862026 0.216323 0.017109
5075.297000 5075.300000 1.340000 2045.920703 48.306923 0.219140 0.016960
5077.346000 5077.350000 1.350000 2059.992335 48.759758 0.222494 0.017457
5079.416000 5079.420000 1.360000 2049.157318 49.209701 0.226844 0.017644
5081.504000 5081.510000 1.380000 2040.383345 50.006746 0.233559 0.017716
5083.606000 5083.610000 1.390000 2015.028362 50.444833 0.239652 0.017921
5085.734000 5085.740000 1.400000 1986.133464 50.894548 0.246086 0.017981
5087.886000 5087.890000 1.410000 1970.048646 51.342324 0.252075 0.018341
5090.050000 5090.050000 1.430000 1961.247749 52.156903 0.258168 0.018535
5092.228000 5092.230000 1.440000 1965.002716 52.601995 0.262446 0.018824
5094.441000 5094.440000 1.450000 1976.626413 53.054527 0.266774 0.019230
5096.662000 5096.660000 1.460000 1980.018708 53.513891 0.271330 0.020036
5098.899000 5098.900000 1.480000 1974.006401 54.336300 0.277948 0.020790
5101.161000 5101.160000 1.490000 1968.367148 54.784402 0.282430 0.021541
5103.442000 5103.440000 1.500000 1972.146279 55.247793 0.287552 0.022358
5105.743000 5105.740000 1.510000 1971.153004 55.706759 0.292555 0.023134
5108.051000 5108.050000 1.530000 1974.179568 56.678427 0.300308 0.023887
5110.391000 5110.390000 1.540000 1979.214610 57.255556 0.305356 0.023892
5112.740000 5112.740000 1.550000 1989.753704 57.727369 0.309726 0.024267
5115.124000 5115.120000 1.560000 2003.067667 58.214526 0.313833 0.024765
5117.512000 5117.510000 1.580000 2015.753248 59.170935 0.320458 0.025071
5119.921000 5119.920000 1.590000 2031.021771 59.647657 0.324866 0.025612
5122.352000 5122.350000 1.600000 2043.686973 60.136396 0.329077 0.025827
5124.798000 5124.800000 1.610000 2059.028391 60.614732 0.333996 0.026656
5127.271000 5127.270000 1.630000 2070.795370 61.487115 0.340259 0.026896
5129.763000 5129.760000 1.640000 2087.869547 61.995942 0.344762 0.027516
5132.272000 5132.270000 1.650000 2091.888208 62.492224 0.350121 0.028038
5134.791000 5134.790000 1.660000 2102.851112 62.997478 0.355257 0.028277
5137.339000 5137.340000 1.680000 2105.228345 63.878069 0.363143 0.028311
5139.899000 5139.900000 1.690000 2101.379796 64.384045 0.369154 0.029043
5142.491000 5142.490000 1.700000 2110.172102 64.894849 0.375852 0.029494
5145.091000 5145.090000 1.710000 2109.230902 65.409164 0.382289 0.029539
5147.711000 5147.710000 1.730000 2106.431663 66.304085 0.390870 0.030135
5150.349000 5150.350000 1.740000 2111.681971 66.837045 0.398633 0.030842
5153.011000 5153.010000 1.750000 2112.791545 67.359317 0.404790 0.031331
5155.694000 5155.690000 1.760000 2109.728499 67.890118 0.412321 0.032253
5158.392000 5158.390000 1.780000 2114.521987 68.797512 0.422538 0.033004
5161.110000 5161.110000 1.790000 2114.777012 69.329951 0.429519 0.033702
5163.841000 5163.840000 1.800000 2116.766124 69.875605 0.437022 0.034836
5166.601000 5166.600000 1.810000 2114.405195 70.416795 0.443845 0.035552
5169.370000 5169.370000 1.830000 2124.228395 71.345463 0.453479 0.036355
5172.171000 5172.170000 1.840000 2129.044012 71.874626 0.461404 0.037294
5174.978000 5174.980000 1.850000 2133.737698 72.410605 0.469484 0.038483
5177.811000 5177.810000 1.860000 2134.563062 72.950018 0.477897 0.039289
5180.660000 5180.660000 1.880000 2131.653820 73.878629 0.488773 0.040291
5183.532000 5183.530000 1.890000 2134.239903 74.450810 0.497918 0.041060
5186.419000 5186.420000 1.900000 2126.045485 74.994651 0.506996 0.041835
5189.324000 5189.320000 1.910000 2129.224526 75.554185 0.516229 0.042644
5192.252000 5192.250000 1.930000 2138.087129 76.482369 0.527236 0.043619
5195.199000 5195.200000 1.940000 2137.188643 77.007268 0.536463 0.044542
5198.163000 5198.160000 1.950000 2132.418658 77.527343 0.545368 0.045091
5201.140000 5201.140000 1.960000 2140.258904 78.070273 0.554642 0.045879
5204.150000 5204.150000 1.980000 2140.506965 79.031794 0.566947 0.046533
5207.170000 5207.170000 1.990000 2143.997166 79.598577 0.576593 0.047559
5210.209000 5210.210000 2.000000 2145.229716 80.160183 0.587240 0.048440
5213.271000 5213.270000 2.010000 2146.121239 80.705200 0.596539 0.049252
5216.349000 5216.350000 2.030000 2152.313205 81.659423 0.609441 0.050463
5219.451000 5219.450000 2.040000 2153.694189 82.193311 0.618941 0.051105
5222.559000 5222.560000 2.050000 2166.019053 82.735303 0.628579 0.052325
5225.699000 5225.700000 2.060000 2175.522129 83.261457 0.637644 0.053263
5228.851000 5228.850000 2.080000 2178.735293 84.190320 0.650396 0.054052
5232.030000 5232.030000 2.090000 2195.637335 84.724788 0.659575 0.055569
5235.221000 5235.220000 2.100000 2202.683867 85.283200 0.669233 0.056457
5238.431000 5238.430000 2.110000 2206.218998 85.853009 0.679765 0.057513
5241.661000 5241.660000 2.130000 2214.068644 86.815684 0.695226 0.059552
5244.921000 5244.920000 2.140000 2212.390780 87.588992 0.708887 0.061036
5248.182000 5248.180000 2.150000 2215.110690 87.863661 0.718185 0.061942
5251.469000 5251.470000 2.160000 2218.160166 88.481697 0.730411 0.063244
5254.782000 5254.780000 2.180000 2224.658197 89.848044 0.749594 0.065589
5258.112000 5258.110000 2.190000 2236.074960 90.615200 0.762685 0.067167
5261.449000 5261.450000 2.200000 2240.542156 91.412522 0.776314 0.068346
5264.820000 5264.820000 2.210000 2248.296453 92.060614 0.789469 0.069895
5268.201000 5268.200000 2.230000 2256.928647 93.178887 0.806640 0.071504
5271.602000 5271.600000 2.240000 2262.495745 93.838902 0.820566 0.072464
5275.031000 5275.030000 2.250000 2260.329355 94.633289 0.835215 0.073681
5278.472000 5278.470000 2.260000 2271.078122 93.897441 0.838019 0.074627
5281.930000 5281.930000 2.280000 2272.135013 96.232309 0.867513 0.077280
5285.404000 5285.400000 2.290000 2270.579685 97.033573 0.883888 0.078675
5288.899000 5288.900000 2.300000 2276.262229 97.744031 0.899794 0.080081
5292.422000 5292.420000 2.310000 2281.685205 98.444217 0.916040 0.081860
5295.960000 5295.960000 2.330000 2284.401326 99.578186 0.936208 0.084423
5299.513000 5299.510000 2.340000 2284.496118 100.182531 0.951462 0.085828
5303.090000 5303.090000 2.350000 2293.289758 100.825020 0.967871 0.087569
5306.679000 5306.680000 2.360000 2290.903820 101.585861 0.986018 0.089621
5310.291000 5310.290000 2.380000 2297.032655 102.768176 1.007828 0.091922
5313.921000 5313.920000 2.390000 2296.724243 103.493953 1.025804 0.093836
5317.573000 5317.570000 2.400000 2302.327966 104.194022 1.043220 0.095885
5321.241000 5321.240000 2.410000 2311.600128 104.715228 1.058937 0.097494
5324.928000 5324.930000 2.430000 2321.458679 105.788181 1.081471 0.100641
5328.641000 5328.640000 2.440000 2318.747462 106.368621 1.098019 0.102308
5332.361000 5332.360000 2.450000 2323.644301 106.987837 1.115035 0.104513
5336.108000 5336.110000 2.460000 2331.964598 107.647110 1.133870 0.106750
5339.871000 5339.870000 2.480000 2335.878252 108.815832 1.156924 0.109552
5343.659000 5343.660000 2.490000 2342.396954 109.473936 1.176994 0.111541
5347.459000 5347.460000 2.500000 2356.299596 110.034986 1.195003 0.113997
5351.280000 5351.280000 2.510000 2355.353615 110.556683 1.212610 0.116309
5355.122000 5355.120000 2.530000 2367.301664 110.873015 1.227201 0.118176
5358.979000 5358.980000 2.540000 2367.970488 112.619422 1.260511 0.121799
5362.861000 5362.860000 2.550000 2378.749187 113.332742 1.282018 0.124427
5366.760000 5366.760000 2.560000 2384.360401 113.956408 1.302220 0.126313
5370.682000 5370.680000 2.580000 2385.241706 114.882400 1.326355 0.128919
5374.610000 5374.610000 2.590000 2391.076230 115.357156 1.345725 0.131388
5378.568000 5378.570000 2.600000 2397.116887 115.865949 1.366426 0.133745
5382.538000 5382.540000 2.610000 2404.338614 116.401806 1.386874 0.136475
5386.542000 5386.540000 2.630000 2411.875834 117.363407 1.412833 0.139345
5390.550000 5390.550000 2.640000 2421.527168 118.049236 1.435935 0.142352
5394.576000 5394.580000 2.650000 2422.531664 118.558792 1.457147 0.145273
5398.631000 5398.630000 2.660000 2432.103338 119.000550 1.476459 0.147749
5402.702000 5402.700000 2.680000 2443.601034 119.854568 1.502032 0.150736
5406.788000 5406.790000 2.690000 2452.928221 120.192259 1.521253 0.153281
5410.903000 5410.900000 2.700000 2458.596450 120.385148 1.539197 0.156067
5415.021000 5415.020000 2.710000 2464.211239 120.697179 1.559124 0.158729
5419.170000 5419.170000 2.730000 2475.065411 120.806000 1.577134 0.161479
5423.326000 5423.330000 2.740000 2484.290726 121.347235 1.601563 0.164892
5427.522000 5427.520000 2.750000 2492.744893 121.492715 1.620684 0.167528
5431.722000 5431.720000 2.760000 2502.227569 121.607145 1.639465 0.170227
5435.941000 5435.940000 2.780000 2507.881933 122.148679 1.665211 0.173723
5440.181000 5440.180000 2.790000 2510.017132 122.309304 1.685934 0.176693
5444.444000 5444.440000 2.800000 2520.203851 122.488873 1.707551 0.180177
5448.722000 5448.720000 2.810000 2527.500796 122.699913 1.729725 0.183535
5453.019000 5453.020000 2.830000 2531.677953 123.343133 1.759057 0.187114
5457.343000 5457.340000 2.840000 2546.105803 123.605516 1.781985 0.190282
5461.672000 5461.670000 2.850000 2551.261092 123.894002 1.806135 0.193933
5466.031000 5466.030000 2.860000 2551.731235 124.160507 1.830100 0.196921
5470.400000 5470.400000 2.880000 2560.510876 125.019577 1.863660 0.201310
5474.802000 5474.800000 2.890000 2570.258278 125.430099 1.890406 0.205353
5479.212000 5479.210000 2.900000 2573.387465 125.782522 1.917533 0.209551
5483.642000 5483.640000 2.910000 2584.709090 126.284847 1.945324 0.212983
5488.089000 5488.090000 2.930000 2593.407886 127.166489 1.979729 0.217973
5492.557000 5492.560000 2.940000 2605.487332 127.701336 2.010144 0.222487
5497.052000 5497.050000 2.950000 2610.414977 128.258282 2.042262 0.227096
5501.560000 5501.560000 2.960000 2621.684983 128.828211 2.073518 0.231208
5506.083000 5506.080000 2.980000 2634.572825 129.849677 2.113070 0.236675
5510.630000 5510.630000 2.990000 2639.118845 130.535999 2.148307 0.241534
5515.190000 5515.190000 3.000000 2648.666972 131.223838 2.183951 0.246649
5519.781000 5519.780000 3.010000 2656.245323 132.002167 2.221474 0.252291
5524.381000 5524.380000 3.030000 2665.666066 133.143436 2.266007 0.258491
5529.000000 5529.000000 3.040000 2674.311169 134.016128 2.305518 0.264044
5533.637000 5533.640000 3.050000 2678.386992 134.731567 2.343876 0.269606
5538.299000 5538.300000 3.060000 2687.484569 135.496945 2.383938 0.275752
5542.980000 5542.980000 3.080000 2689.407962 136.703201 2.432427 0.282816
5547.681000 5547.680000 3.090000 2697.214100 137.845491 2.479915 0.289247
5552.400000 5552.400000 3.100000 2712.235199 138.913419 2.527795 0.295826
5557.129000 5557.130000 3.110000 2721.426724 140.332476 2.583703 0.304304
5561.888000 5561.890000 3.130000 2729.695144 141.704242 2.637361 0.311452
5566.658000 5566.660000 3.140000 2737.087827 142.561349 2.683428 0.318668
5571.459000 5571.460000 3.150000 2744.677526 143.403986 2.729925 0.325617
5576.272000 5576.270000 3.160000 2752.531373 144.318256 2.778286 0.332540
5581.103000 5581.100000 3.180000 2763.292299 145.537808 2.832851 0.340874
5585.951000 5585.950000 3.190000 2770.127863 146.445462 2.881538 0.348321
5590.822000 5590.820000 3.200000 2777.496280 147.245921 2.930001 0.355973
5595.705000 5595.710000 3.210000 2790.165609 148.103921 2.981190 0.363552
5600.615000 5600.620000 3.230000 2794.540915 149.369805 3.040925 0.372458
5605.540000 5605.540000 3.240000 2807.022306 150.153929 3.091324 0.380861
5610.492000 5610.490000 3.250000 2814.044773 150.989444 3.143945 0.388841
5615.450000 5615.450000 3.260000 2820.251175 151.765789 3.196270 0.396797
5620.441000 5620.440000 3.280000 2828.952648 152.975720 3.258164 0.406919
5625.440000 5625.440000 3.290000 2839.558247 153.083913 3.294274 0.413586
5630.461000 5630.460000 3.300000 2853.139827 153.333596 3.340822 0.421516
5635.500000 5635.500000 3.310000 2860.111736 154.194647 3.399529 0.430897
5640.560000 5640.560000 3.330000 2865.257020 155.533514 3.467978 0.441838
5645.640000 5645.640000 3.340000 2873.603844 156.036052 3.519800 0.450197
5650.737000 5650.740000 3.350000 2882.949984 156.592456 3.572338 0.460220
5655.860000 5655.860000 3.360000 2892.157770 157.217837 3.627221 0.468985
5660.990000 5660.990000 3.380000 2897.204801 158.478643 3.696712 0.480544
5666.150000 5666.150000 3.390000 2908.579734 159.348515 3.757720 0.491038
5671.317000 5671.320000 3.400000 2915.677364 160.317997 3.821220 0.501798
5676.519000 5676.520000 3.410000 2929.440267 161.256432 3.885397 0.512143
5681.731000 5681.730000 3.430000 2939.329189 162.598128 3.960471 0.524542
5686.960000 5686.960000 3.440000 2945.017720 163.400918 4.021937 0.535283
5692.212000 5692.210000 3.450000 2958.310142 164.181757 4.082759 0.546235
5697.479000 5697.480000 3.460000 2967.549010 164.918607 4.139923 0.557060
5702.771000 5702.770000 3.480000 2978.606211 166.598924 4.214351 0.569798
5708.080000 5708.080000 3.490000 2997.882016 167.775897 4.262396 0.579357
