# XDI/1.0 BlueSky/1.5.0
# Beamline.name: 6BM
# Beamline.xray_source: NSLS-II three-pole wiggler
# Beamline.collimation: paraboloid mirror, 5 nm Rh on 30 nm Pt
# Beamline.focusing: not in use
# Beamline.harmonic_rejection: flat mirror, Si stripe, pitch = 7.0 mrad relative to beam
# Detector.i0: 10 cm N2
# Detector.i1: 25 cm N2
# Detector.i2: 25 cm N2
# Element.symbol: Ti
# Element.edge: K
# Facility.name: NSLS-II
# Facility.energy: 3.0
# Facility.current: 220.1
# Facility.mode: top-off
# Facility.gup: 301027
# Facility.saf: 304156
# Mono.name: Si(111)
# Mono.d_spacing: 3.1352584
# Mono.encoder_resolution: 0.0000050 deg/ct
# Mono.angle_offset: 16.0571090 deg
# Mono.scan_mode: pseudo channel cut
# Mono.scan_type: step
# Mono.direction: forward in energy
# Sample.name: CaZrTi2O7 zirconolite
# Sample.prep: Powder in polyethylene glycol pellet
# Sample.x_position: -97.532 mm
# Sample.y_position: 117.543 mm
# Sample.wheel_position: -630.000 mm
# Scan.experimenters: Bruce Ravel, Martin Stennett
# Scan.edge_energy: 4966.0
# Scan.start_time: 2019-05-30T05:08:33
# Scan.end_time: 2019-05-30T05:51:23
# Scan.transient_id: 9794
# Scan.uid: 5f713530-4e03-4c88-95ea-5e8784320b5e
# Scan.plot_hint: ln(I0/It)  --  ln($5/$6)
# Scan.sequence: merge of 3 scans
# Column.1: energy eV
# Column.2: requested_energy eV
# Column.3: measurement_time seconds
# Column.4: mutrans
# Column.5: i0
# Column.6: itrans
# Column.7: irefer
# /////
#  sample disk prepared by Martin
# -----
# energy   requested_energy   measurement_time   mutrans   i0   itrans   irefer
4765.997000 4766.000000 0.500000 3.459294 11.021287 0.346646 0.027668
4776.007000 4776.000000 0.500000 3.437217 11.229195 0.361063 0.029041
4786.009000 4786.000000 0.500000 3.412809 11.446782 0.377155 0.030646
4796.010000 4796.000000 0.500000 3.388821 11.664888 0.393672 0.032515
4806.007000 4806.000000 0.500000 3.364676 11.885977 0.410936 0.034496
4816.006000 4816.000000 0.500000 3.341552 12.098661 0.428073 0.036173
4826.007000 4826.000000 0.500000 3.317664 12.308493 0.446032 0.038189
4836.002000 4836.000000 0.500000 3.294275 12.535231 0.464994 0.040244
4846.000000 4846.000000 0.500000 3.270732 12.762103 0.484688 0.042594
4856.000000 4856.000000 0.500000 3.247734 12.979275 0.504396 0.044921
4866.005000 4866.000000 0.500000 3.224927 13.199606 0.524796 0.047331
4876.007000 4876.000000 0.500000 3.202160 13.417662 0.545756 0.049911
4886.004000 4886.000000 0.500000 3.179326 13.630005 0.567193 0.052652
4896.006000 4896.000000 0.500000 3.156986 13.834216 0.588699 0.055174
4906.002000 4906.000000 0.500000 3.135246 14.034046 0.610327 0.058197
4916.001000 4916.000000 0.500000 3.113275 14.220850 0.632188 0.060650
4926.001000 4926.000000 0.500000 3.091070 14.417673 0.655331 0.063750
4936.001000 4936.000000 0.500000 3.069487 14.608528 0.678493 0.066836
4938.000000 4938.000000 0.500000 3.065301 14.648246 0.683194 0.067631
4939.999000 4940.000000 0.500000 3.060724 14.684885 0.688044 0.068158
4941.997000 4942.000000 0.500000 3.056458 14.718424 0.692565 0.068878
4943.996000 4944.000000 0.500000 3.052432 14.753905 0.697033 0.069560
4946.002000 4946.000000 0.500000 3.047987 14.786392 0.701686 0.069968
4948.005000 4948.000000 0.500000 3.043860 14.815454 0.705967 0.070500
4950.004000 4950.000000 0.500000 3.039961 14.853435 0.710542 0.071196
4952.003000 4952.000000 0.500000 3.035825 14.887466 0.715117 0.071547
4954.006000 4954.000000 0.500000 3.031570 14.916746 0.719584 0.072374
4956.003000 4956.000000 0.500000 3.027320 14.943629 0.723949 0.072871
4956.247000 4956.250000 0.500000 3.027273 14.947037 0.724153 0.072868
4956.494000 4956.500000 0.500000 3.026337 14.947324 0.724835 0.073265
4956.745000 4956.750000 0.500000 3.025913 14.949386 0.725249 0.073007
4956.993000 4957.000000 0.500000 3.025342 14.953758 0.725871 0.073073
4957.246000 4957.250000 0.500000 3.024486 14.957308 0.726670 0.073317
4957.496000 4957.500000 0.500000 3.024310 14.960635 0.726959 0.073118
4957.745000 4957.750000 0.500000 3.023983 14.962571 0.727289 0.073197
4957.996000 4958.000000 0.500000 3.023737 14.966934 0.727682 0.073121
4958.244000 4958.250000 0.500000 3.022554 14.970037 0.728689 0.073561
4958.494000 4958.500000 0.500000 3.022088 14.973598 0.729205 0.073321
4958.746000 4958.750000 0.500000 3.021834 14.975321 0.729477 0.073508
4958.995000 4959.000000 0.500000 3.021209 15.006500 0.731450 0.073570
4959.246000 4959.250000 0.500000 3.020665 15.017300 0.732377 0.073674
4959.496000 4959.500000 0.500000 3.020014 15.020172 0.732991 0.073736
4959.748000 4959.750000 0.500000 3.019914 15.020389 0.733079 0.073885
4959.997000 4960.000000 0.500000 3.018992 15.024177 0.733939 0.074004
4960.244000 4960.250000 0.500000 3.018826 15.027287 0.734209 0.073579
4960.496000 4960.500000 0.500000 3.018559 15.032307 0.734653 0.073907
4960.746000 4960.750000 0.500000 3.017654 15.036619 0.735531 0.073877
4960.994000 4961.000000 0.500000 3.017482 15.040867 0.735862 0.073518
4961.246000 4961.250000 0.500000 3.016893 15.043149 0.736409 0.073797
4961.498000 4961.500000 0.500000 3.016346 15.045113 0.736912 0.073670
4961.748000 4961.750000 0.500000 3.016098 15.051476 0.737403 0.073615
4961.998000 4962.000000 0.500000 3.015695 15.058295 0.738037 0.073830
4962.245000 4962.250000 0.500000 3.015004 15.061744 0.738711 0.073603
4962.496000 4962.500000 0.500000 3.014422 15.066598 0.739379 0.073634
4962.744000 4962.750000 0.500000 3.014007 15.066174 0.739669 0.073362
4962.995000 4963.000000 0.500000 3.013464 15.072073 0.740358 0.073064
4963.248000 4963.250000 0.500000 3.013237 15.075539 0.740703 0.072624
4963.497000 4963.500000 0.500000 3.012703 15.080035 0.741315 0.072172
4963.750000 4963.750000 0.500000 3.012289 15.084268 0.741835 0.071108
4963.998000 4964.000000 0.500000 3.011669 15.091388 0.742640 0.070102
4964.246000 4964.250000 0.500000 3.011182 15.093468 0.743104 0.067916
4964.498000 4964.500000 0.500000 3.011388 15.099361 0.743241 0.064083
4964.746000 4964.750000 0.500000 3.010720 15.101184 0.743827 0.059527
4964.996000 4965.000000 0.500000 3.010334 15.103777 0.744244 0.054921
4965.249000 4965.250000 0.500000 3.009938 15.105665 0.744631 0.051840
4965.499000 4965.500000 0.500000 3.010475 15.108679 0.744382 0.050191
4965.748000 4965.750000 0.500000 3.010212 15.117329 0.745001 0.050603
4965.998000 4966.000000 0.500000 3.010215 15.120031 0.745139 0.052496
4966.250000 4966.250000 0.500000 3.010759 15.122394 0.744845 0.054288
4966.499000 4966.500000 0.500000 3.012491 15.123626 0.743623 0.056062
4966.747000 4966.750000 0.500000 3.014423 15.127426 0.742375 0.057085
4967.001000 4967.000000 0.500000 3.017613 15.128562 0.740036 0.057722
4967.251000 4967.250000 0.500000 3.021196 15.132760 0.737597 0.057682
4967.500000 4967.500000 0.500000 3.023886 15.132482 0.735614 0.057067
4967.753000 4967.750000 0.500000 3.026464 15.137553 0.733950 0.056133
4967.999000 4968.000000 0.500000 3.029057 15.142857 0.732338 0.055254
4968.251000 4968.250000 0.500000 3.031235 15.148626 0.731003 0.054275
4968.497000 4968.500000 0.500000 3.034074 15.153410 0.729185 0.053208
4968.746000 4968.750000 0.500000 3.035832 15.170480 0.728726 0.052479
4969.001000 4969.000000 0.500000 3.035962 15.191034 0.729609 0.051594
4969.248000 4969.250000 0.500000 3.034568 15.195546 0.730830 0.051035
4969.500000 4969.500000 0.500000 3.032465 15.197431 0.732463 0.050740
4969.750000 4969.750000 0.500000 3.029926 15.195423 0.734235 0.050547
4970.002000 4970.000000 0.500000 3.027615 15.196466 0.735977 0.050330
4970.250000 4970.250000 0.500000 3.026086 15.206036 0.737570 0.050306
4970.500000 4970.500000 0.500000 3.024876 15.217331 0.739018 0.049994
4970.749000 4970.750000 0.500000 3.022830 15.230758 0.741189 0.049925
4971.001000 4971.000000 0.500000 3.020528 15.239922 0.743338 0.049858
4971.251000 4971.250000 0.500000 3.018913 15.246914 0.744876 0.049525
4971.503000 4971.500000 0.500000 3.017869 15.251689 0.745888 0.048819
4971.752000 4971.750000 0.500000 3.017676 15.254326 0.746162 0.048180
4972.001000 4972.000000 0.500000 3.018274 15.258956 0.745944 0.047145
4972.250000 4972.250000 0.500000 3.019866 15.263878 0.745004 0.046021
4972.500000 4972.500000 0.500000 3.020232 15.269863 0.745014 0.045441
4972.750000 4972.750000 0.500000 3.021127 15.272036 0.744456 0.044201
4973.003000 4973.000000 0.500000 3.021685 15.274718 0.744171 0.043202
4973.250000 4973.250000 0.500000 3.021351 15.278422 0.744600 0.042338
4973.502000 4973.500000 0.500000 3.021585 15.279607 0.744485 0.041716
4973.751000 4973.750000 0.500000 3.021869 15.281398 0.744360 0.040885
4974.000000 4974.000000 0.500000 3.022149 15.279693 0.744069 0.039984
4974.249000 4974.250000 0.500000 3.022854 15.282795 0.743695 0.039080
4974.499000 4974.500000 0.500000 3.023619 15.285486 0.743258 0.038478
4974.750000 4974.750000 0.500000 3.024820 15.319966 0.744038 0.037891
4975.004000 4975.000000 0.500000 3.025816 15.322325 0.743402 0.036968
4975.252000 4975.250000 0.500000 3.027253 15.321681 0.742321 0.036177
4975.501000 4975.500000 0.500000 3.028547 15.324279 0.741482 0.035505
4975.752000 4975.750000 0.500000 3.029831 15.320779 0.740357 0.034793
4976.000000 4976.000000 0.500000 3.031313 15.323683 0.739403 0.034155
4976.254000 4976.250000 0.500000 3.032896 15.320849 0.738090 0.033631
4976.499000 4976.500000 0.500000 3.034168 15.320114 0.737123 0.032955
4976.752000 4976.750000 0.500000 3.035561 15.322696 0.736219 0.032248
4976.999000 4977.000000 0.500000 3.036569 15.324582 0.735575 0.031964
4977.255000 4977.250000 0.500000 3.038210 15.326066 0.734431 0.031664
4977.500000 4977.500000 0.500000 3.040159 15.328121 0.733111 0.031178
4977.751000 4977.750000 0.500000 3.043197 15.329023 0.730921 0.030722
4978.000000 4978.000000 0.500000 3.046413 15.330523 0.728647 0.030146
4978.253000 4978.250000 0.500000 3.050245 15.336678 0.726137 0.030097
4978.500000 4978.500000 0.500000 3.053899 15.339006 0.723619 0.029657
4978.753000 4978.750000 0.500000 3.056867 15.335637 0.721294 0.029461
4979.003000 4979.000000 0.500000 3.060134 15.336725 0.719001 0.029324
4979.251000 4979.250000 0.500000 3.063625 15.335117 0.716434 0.028915
4979.499000 4979.500000 0.500000 3.066151 15.333594 0.714575 0.028872
4979.749000 4979.750000 0.500000 3.068984 15.334231 0.712564 0.028496
4980.001000 4980.000000 0.500000 3.071920 15.331102 0.710313 0.028560
4980.251000 4980.250000 0.500000 3.075426 15.327119 0.707646 0.028270
4980.503000 4980.500000 0.500000 3.079709 15.322121 0.704390 0.028141
4980.751000 4980.750000 0.500000 3.084496 15.321030 0.700998 0.028016
4981.003000 4981.000000 0.500000 3.090818 15.318305 0.696437 0.027436
4981.249000 4981.250000 0.500000 3.097700 15.318247 0.691715 0.027178
4981.499000 4981.500000 0.500000 3.105565 15.321670 0.686421 0.027150
4981.750000 4981.750000 0.500000 3.114274 15.321738 0.680467 0.026641
4982.003000 4982.000000 0.500000 3.123263 15.321975 0.674319 0.026652
4982.252000 4982.250000 0.500000 3.133124 15.323816 0.667828 0.026123
4982.503000 4982.500000 0.500000 3.141972 15.326190 0.662046 0.025878
4982.750000 4982.750000 0.500000 3.151430 15.327792 0.655933 0.025551
4983.002000 4983.000000 0.500000 3.160763 15.329501 0.649856 0.025548
4983.252000 4983.250000 0.500000 3.169009 15.330181 0.644561 0.024826
4983.503000 4983.500000 0.500000 3.176299 15.327916 0.639753 0.024647
4983.750000 4983.750000 0.500000 3.182842 15.324348 0.635457 0.024435
4984.001000 4984.000000 0.500000 3.187984 15.324567 0.632219 0.024539
4984.252000 4984.250000 0.500000 3.191624 15.323861 0.629894 0.024740
4984.503000 4984.500000 0.500000 3.194449 15.323379 0.628092 0.024730
4984.749000 4984.750000 0.500000 3.196082 15.326012 0.627186 0.024712
4985.001000 4985.000000 0.500000 3.196953 15.327381 0.626687 0.024903
4985.252000 4985.250000 0.500000 3.197203 15.326642 0.626500 0.024673
4985.504000 4985.500000 0.500000 3.196287 15.324359 0.626981 0.024957
4985.751000 4985.750000 0.500000 3.195862 15.326125 0.627317 0.025418
4986.005000 4986.000000 0.500000 3.193976 15.324488 0.628445 0.025241
4986.251000 4986.250000 0.500000 3.192950 15.325507 0.629118 0.025593
4986.502000 4986.500000 0.500000 3.190822 15.325822 0.630467 0.025584
4986.750000 4986.750000 0.500000 3.188861 15.320580 0.631485 0.025774
4987.000000 4987.000000 0.500000 3.186517 15.319748 0.632944 0.026118
4987.250000 4987.250000 0.500000 3.184574 15.318340 0.634109 0.025921
4987.504000 4987.500000 0.500000 3.182202 15.318086 0.635622 0.026269
4987.753000 4987.750000 0.500000 3.179889 15.316769 0.637034 0.026300
4988.002000 4988.000000 0.500000 3.177706 15.318687 0.638498 0.026237
4988.252000 4988.250000 0.500000 3.176126 15.339551 0.640375 0.026368
4988.502000 4988.500000 0.500000 3.174646 15.369764 0.642592 0.026466
4988.750000 4988.750000 0.500000 3.173083 15.378059 0.643941 0.026446
4989.000000 4989.000000 0.500000 3.171559 15.386453 0.645279 0.026605
4989.252000 4989.250000 0.500000 3.170835 15.398125 0.646240 0.026634
4989.506000 4989.500000 0.500000 3.169916 15.411018 0.647385 0.026665
4989.751000 4989.750000 0.500000 3.168815 15.423280 0.648603 0.026762
4990.003000 4990.000000 0.500000 3.167886 15.435894 0.649740 0.026827
4990.252000 4990.250000 0.500000 3.167109 15.449834 0.650827 0.027094
4990.499000 4990.500000 0.500000 3.166528 15.457483 0.651527 0.026934
4990.748000 4990.750000 0.500000 3.165891 15.468645 0.652414 0.026920
4991.000000 4991.000000 0.500000 3.165569 15.482126 0.653192 0.026767
4991.253000 4991.250000 0.500000 3.165112 15.494001 0.653995 0.026884
4991.503000 4991.500000 0.500000 3.164709 15.502730 0.654629 0.027404
4991.751000 4991.750000 0.500000 3.164189 15.510848 0.655306 0.027464
4991.999000 4992.000000 0.500000 3.164695 15.517886 0.655280 0.027400
4992.253000 4992.250000 0.500000 3.164770 15.524906 0.655523 0.027210
4992.498000 4992.500000 0.500000 3.165279 15.531628 0.655474 0.027515
4992.752000 4992.750000 0.500000 3.165937 15.540141 0.655401 0.027397
4993.002000 4993.000000 0.500000 3.166651 15.544079 0.655095 0.027326
4993.255000 4993.250000 0.500000 3.167673 15.549526 0.654652 0.027296
4993.503000 4993.500000 0.500000 3.168383 15.553923 0.654374 0.027480
4993.754000 4993.750000 0.500000 3.169764 15.559149 0.653693 0.027388
4994.002000 4994.000000 0.500000 3.170671 15.562448 0.653243 0.027284
4994.249000 4994.250000 0.500000 3.171970 15.567591 0.652616 0.027096
4994.501000 4994.500000 0.500000 3.172292 15.572933 0.652624 0.027299
4994.750000 4994.750000 0.500000 3.172972 15.579224 0.652441 0.026817
4995.004000 4995.000000 0.500000 3.173728 15.580118 0.651988 0.026895
4995.251000 4995.250000 0.500000 3.173562 15.585057 0.652302 0.027129
4995.503000 4995.500000 0.500000 3.173514 15.586727 0.652403 0.026655
4995.752000 4995.750000 0.500000 3.173184 15.598791 0.653124 0.026512
4996.001000 4996.000000 0.700000 3.173062 21.771537 0.911690 0.036667
4997.093000 4997.080000 0.710000 3.168580 22.155152 0.931927 0.036695
4998.186000 4998.180000 0.730000 3.163716 22.782286 0.962969 0.037041
4999.299000 4999.290000 0.740000 3.160455 23.109535 0.979996 0.037005
5000.439000 5000.430000 0.750000 3.157501 23.511688 1.000005 0.037829
5001.586000 5001.580000 0.760000 3.154601 23.872416 1.018283 0.038680
5002.768000 5002.760000 0.780000 3.150735 24.551900 1.051329 0.040306
5003.958000 5003.950000 0.790000 3.146842 24.925413 1.071491 0.040961
5005.167000 5005.160000 0.800000 3.141101 25.301002 1.093888 0.042568
5006.397000 5006.390000 0.810000 3.133168 25.685545 1.119360 0.044441
5007.648000 5007.640000 0.830000 3.124582 26.383142 1.159691 0.047396
5008.916000 5008.910000 0.840000 3.116054 26.758192 1.186227 0.049424
5010.209000 5010.200000 0.850000 3.105485 27.138139 1.215870 0.051414
5011.516000 5011.510000 0.860000 3.095913 27.516086 1.244657 0.053236
5012.835000 5012.830000 0.880000 3.088701 28.208862 1.285218 0.055345
5014.186000 5014.180000 0.890000 3.083155 28.582687 1.309492 0.056888
5015.546000 5015.540000 0.900000 3.079107 28.953506 1.331867 0.058256
5016.937000 5016.930000 0.910000 3.076781 29.330931 1.352372 0.059723
5018.336000 5018.330000 0.930000 3.074374 30.043621 1.388578 0.062065
5019.756000 5019.750000 0.940000 3.071085 30.432026 1.411158 0.063221
5021.198000 5021.190000 0.950000 3.066692 30.825163 1.435690 0.065038
5022.650000 5022.650000 0.960000 3.062199 31.283768 1.463582 0.066892
5024.136000 5024.130000 0.980000 3.058880 32.012857 1.502694 0.068285
5025.632000 5025.630000 0.990000 3.056214 32.402638 1.525044 0.068766
5027.148000 5027.140000 1.000000 3.053864 32.799645 1.547389 0.070160
5028.688000 5028.680000 1.010000 3.051677 33.203046 1.569833 0.070546
5030.248000 5030.240000 1.030000 3.049066 33.920929 1.607958 0.071259
5031.817000 5031.810000 1.040000 3.045865 34.324659 1.632329 0.071185
5033.409000 5033.400000 1.050000 3.043309 34.729505 1.655817 0.070599
5035.007000 5035.010000 1.060000 3.040087 35.127980 1.680202 0.070209
5036.656000 5036.650000 1.080000 3.037572 35.868186 1.719942 0.070738
5038.297000 5038.300000 1.090000 3.034391 36.278354 1.745131 0.071349
5039.962000 5039.970000 1.100000 3.032313 36.689067 1.768552 0.072040
5041.646000 5041.650000 1.110000 3.030418 37.101665 1.791841 0.073495
5043.356000 5043.360000 1.130000 3.029437 37.848862 1.829720 0.075719
5045.085000 5045.090000 1.140000 3.028639 38.268049 1.851464 0.077441
5046.829000 5046.830000 1.150000 3.027623 38.684035 1.873498 0.080274
5048.600000 5048.600000 1.160000 3.025937 39.106364 1.897146 0.082908
5050.379000 5050.380000 1.180000 3.024027 39.877524 1.938256 0.086591
5052.177000 5052.180000 1.190000 3.021453 40.299064 1.963781 0.089804
5053.998000 5054.000000 1.200000 3.018527 40.735544 1.990873 0.092618
5055.836000 5055.840000 1.210000 3.015997 41.173170 2.017356 0.094822
5057.697000 5057.700000 1.230000 3.013236 41.954544 2.061327 0.097344
5059.574000 5059.580000 1.240000 3.010672 42.399891 2.088549 0.099096
5061.479000 5061.480000 1.250000 3.007305 42.838507 2.117293 0.100762
5063.396000 5063.400000 1.260000 3.003466 43.286152 2.147636 0.102621
5065.331000 5065.330000 1.280000 2.999223 44.088106 2.196742 0.105694
5067.289000 5067.290000 1.290000 2.994840 44.544274 2.229208 0.108228
5069.258000 5069.260000 1.300000 2.991092 44.997920 2.260368 0.110713
5071.258000 5071.260000 1.310000 2.987223 45.456046 2.292230 0.112565
5073.269000 5073.270000 1.330000 2.982633 46.271771 2.344108 0.115079
5075.299000 5075.300000 1.340000 2.977715 46.732173 2.379103 0.116438
5077.347000 5077.350000 1.350000 2.972458 47.200135 2.415575 0.116988
5079.418000 5079.420000 1.360000 2.967110 47.674429 2.452926 0.117184
5081.508000 5081.510000 1.380000 2.961672 48.498348 2.508945 0.118437
5083.604000 5083.610000 1.390000 2.956601 48.994078 2.547430 0.118386
5085.742000 5085.740000 1.400000 2.951429 49.564300 2.590483 0.117779
5087.888000 5087.890000 1.410000 2.946147 50.045427 2.629463 0.118426
5090.051000 5090.050000 1.430000 2.940759 50.886724 2.688116 0.119654
5092.230000 5092.230000 1.440000 2.935709 51.384953 2.728180 0.121909
5094.443000 5094.440000 1.450000 2.930697 51.895999 2.769181 0.126039
5096.664000 5096.660000 1.460000 2.925851 52.398686 2.809590 0.130763
5098.903000 5098.900000 1.480000 2.921095 53.270787 2.869962 0.137746
5101.165000 5101.160000 1.490000 2.916535 53.770297 2.910116 0.143956
5103.444000 5103.440000 1.500000 2.912033 54.297145 2.951893 0.149463
5105.743000 5105.740000 1.510000 2.906983 54.821421 2.995472 0.154044
5108.050000 5108.050000 1.530000 2.902774 55.702221 3.056422 0.157660
5110.391000 5110.390000 1.540000 2.898555 56.227920 3.098316 0.159890
5112.741000 5112.740000 1.550000 2.894452 56.760448 3.140521 0.162597
5115.120000 5115.120000 1.560000 2.890450 57.297843 3.182957 0.165187
5117.515000 5117.510000 1.580000 2.886190 58.199607 3.246874 0.168828
5119.921000 5119.920000 1.590000 2.882043 58.747310 3.291048 0.171608
5122.350000 5122.350000 1.600000 2.878221 59.394625 3.340043 0.174945
5124.799000 5124.800000 1.610000 2.874736 59.962567 3.383746 0.178465
5127.267000 5127.270000 1.630000 2.870790 60.890615 3.449687 0.182700
5129.762000 5129.760000 1.640000 2.866814 61.453030 3.495441 0.185667
5132.270000 5132.270000 1.650000 2.862678 62.011929 3.541849 0.188952
5134.792000 5134.790000 1.660000 2.858094 62.572956 3.590324 0.191770
5137.341000 5137.340000 1.680000 2.853572 63.522473 3.661320 0.194915
5139.900000 5139.900000 1.690000 2.848641 64.115699 3.713769 0.196708
5142.491000 5142.490000 1.700000 2.844172 64.816738 3.771192 0.198512
5145.091000 5145.090000 1.710000 2.839101 65.423281 3.825840 0.200366
5147.713000 5147.710000 1.730000 2.834124 66.390101 3.901769 0.203332
5150.349000 5150.350000 1.740000 2.828821 66.988771 3.957845 0.206623
5153.012000 5153.010000 1.750000 2.823644 67.588984 4.014049 0.210581
5155.693000 5155.690000 1.760000 2.818798 68.182890 4.069009 0.215673
5158.391000 5158.390000 1.780000 2.813789 69.167946 4.148514 0.222523
5161.110000 5161.110000 1.790000 2.808569 69.755048 4.205611 0.228542
5163.843000 5163.840000 1.800000 2.803481 70.363461 4.263950 0.233901
5166.601000 5166.600000 1.810000 2.798491 70.967951 4.322086 0.238807
5169.370000 5169.370000 1.830000 2.793158 71.951304 4.405392 0.245834
5172.171000 5172.170000 1.840000 2.787741 72.551728 4.466291 0.252276
5174.982000 5174.980000 1.850000 2.782666 73.136396 4.525204 0.258479
5177.810000 5177.810000 1.860000 2.777327 73.728593 4.586259 0.265151
5180.661000 5180.660000 1.880000 2.772180 74.737949 4.673022 0.271755
5183.531000 5183.530000 1.890000 2.766702 75.377939 4.738939 0.276718
5186.418000 5186.420000 1.900000 2.761493 75.986454 4.802128 0.281475
5189.324000 5189.320000 1.910000 2.755809 76.597047 4.868329 0.286357
5192.251000 5192.250000 1.930000 2.750606 77.613024 4.958631 0.292563
5195.199000 5195.200000 1.940000 2.745234 78.221274 5.024385 0.297074
5198.161000 5198.160000 1.950000 2.739501 78.788336 5.089925 0.301080
5201.139000 5201.140000 1.960000 2.733643 79.404845 5.159898 0.306123
5204.149000 5204.150000 1.980000 2.727921 80.467719 5.258965 0.311858
5207.171000 5207.170000 1.990000 2.722144 81.113264 5.331875 0.316100
5210.209000 5210.210000 2.000000 2.716354 81.739859 5.404243 0.320487
5213.272000 5213.270000 2.010000 2.710815 82.358808 5.475432 0.325690
5216.349000 5216.350000 2.030000 2.705049 83.415217 5.577736 0.333403
5219.451000 5219.450000 2.040000 2.699517 84.076709 5.653137 0.340057
5222.557000 5222.560000 2.050000 2.693879 84.754749 5.730939 0.347176
5225.699000 5225.700000 2.060000 2.688518 85.421383 5.807081 0.352799
5228.850000 5228.850000 2.080000 2.683137 86.668323 5.923638 0.361910
5232.029000 5232.030000 2.090000 2.677794 87.356853 6.002700 0.369037
5235.220000 5235.220000 2.100000 2.672265 88.051693 6.083982 0.376754
5238.430000 5238.430000 2.110000 2.666870 88.758716 6.166015 0.384481
5241.662000 5241.660000 2.130000 2.661275 89.857885 6.277407 0.394964
5244.920000 5244.920000 2.140000 2.655962 90.496866 6.355708 0.403125
5248.181000 5248.180000 2.150000 2.650780 90.654511 6.399866 0.409436
5251.471000 5251.470000 2.160000 2.645118 91.452437 6.492850 0.418654
5254.783000 5254.780000 2.180000 2.639226 92.930871 6.636803 0.430723
5258.109000 5258.110000 2.190000 2.633400 93.767379 6.735678 0.439635
5261.452000 5261.450000 2.200000 2.627435 94.480880 6.827544 0.448907
5264.819000 5264.820000 2.210000 2.621280 95.258946 6.926257 0.457219
5268.201000 5268.200000 2.230000 2.615289 96.665446 7.070755 0.468442
5271.601000 5271.600000 2.240000 2.609450 97.425309 7.168090 0.476010
5275.031000 5275.030000 2.250000 2.603293 98.267267 7.274668 0.484500
5278.470000 5278.470000 2.260000 2.597109 97.939225 7.295362 0.487252
5281.931000 5281.930000 2.280000 2.591522 100.195220 7.505219 0.502009
5285.403000 5285.400000 2.290000 2.585334 101.027511 7.614564 0.511186
5288.899000 5288.900000 2.300000 2.579371 101.766929 7.716139 0.520378
5292.419000 5292.420000 2.310000 2.573242 102.503406 7.819741 0.530175
5295.960000 5295.960000 2.330000 2.567081 103.733173 7.962471 0.542880
5299.510000 5299.510000 2.340000 2.561239 104.408615 8.061267 0.552917
5303.090000 5303.090000 2.350000 2.555220 105.154992 8.167932 0.563994
5306.680000 5306.680000 2.360000 2.549384 105.953160 8.278098 0.574679
5310.291000 5310.290000 2.380000 2.543312 107.207284 8.427098 0.587929
5313.918000 5313.920000 2.390000 2.537095 107.965983 8.539640 0.598573
5317.573000 5317.570000 2.400000 2.530900 108.726764 8.653285 0.610380
5321.241000 5321.240000 2.410000 2.524371 109.277074 8.754062 0.621253
5324.929000 5324.930000 2.430000 2.518265 110.350062 8.894143 0.635201
5328.640000 5328.640000 2.440000 2.512525 110.888497 8.988986 0.646132
5332.357000 5332.360000 2.450000 2.507037 111.470138 9.085847 0.656910
5336.112000 5336.110000 2.460000 2.500178 112.268263 9.213901 0.670854
5339.872000 5339.870000 2.480000 2.493919 113.501858 9.373635 0.687629
5343.658000 5343.660000 2.490000 2.487739 114.226046 9.491882 0.701053
5347.463000 5347.460000 2.500000 2.481354 114.814865 9.601983 0.713234
5351.281000 5351.280000 2.510000 2.475047 115.280532 9.701905 0.724649
5355.118000 5355.120000 2.530000 2.469439 115.679292 9.790189 0.735578
5358.982000 5358.980000 2.540000 2.462622 117.335270 9.998295 0.754724
5362.862000 5362.860000 2.550000 2.455853 117.987259 10.122152 0.766984
5366.758000 5366.760000 2.560000 2.449225 118.537680 10.236968 0.778743
5370.680000 5370.680000 2.580000 2.443207 119.531218 10.385081 0.793078
5374.612000 5374.610000 2.590000 2.437014 120.119085 10.501016 0.805697
5378.569000 5378.570000 2.600000 2.430664 120.684677 10.617642 0.818726
5382.542000 5382.540000 2.610000 2.424211 121.565244 10.764349 0.834299
5386.540000 5386.540000 2.630000 2.417892 122.554536 10.920719 0.852286
5390.551000 5390.550000 2.640000 2.411368 123.007439 11.032881 0.865383
5394.582000 5394.580000 2.650000 2.404723 123.570881 11.157300 0.879831
5398.631000 5398.630000 2.660000 2.398445 123.777644 11.246330 0.892335
5402.699000 5402.700000 2.680000 2.391799 124.871620 11.421389 0.911586
5406.789000 5406.790000 2.690000 2.385217 125.269308 11.533429 0.925696
5410.903000 5410.900000 2.700000 2.378639 125.734687 11.652673 0.940952
5415.024000 5415.020000 2.710000 2.372116 126.430182 11.793851 0.958099
5419.168000 5419.170000 2.730000 2.365562 127.170748 11.940887 0.976475
5423.330000 5423.330000 2.740000 2.359042 128.001369 12.097491 0.994794
5427.521000 5427.520000 2.750000 2.352499 128.506873 12.225017 1.011676
5431.722000 5431.720000 2.760000 2.345930 129.000980 12.352909 1.029197
5435.940000 5435.940000 2.780000 2.339432 130.003144 12.530002 1.049599
5440.182000 5440.180000 2.790000 2.332777 130.578708 12.669518 1.067741
5444.441000 5444.440000 2.800000 2.326020 131.170340 12.813209 1.086218
5448.718000 5448.720000 2.810000 2.319387 131.755861 12.956042 1.104569
5453.017000 5453.020000 2.830000 2.313042 132.868217 13.148583 1.126633
5457.341000 5457.340000 2.840000 2.306244 133.515956 13.302818 1.146202
5461.672000 5461.670000 2.850000 2.299604 134.226110 13.462679 1.165568
5466.030000 5466.030000 2.860000 2.292699 134.969259 13.631020 1.186728
5470.400000 5470.400000 2.880000 2.285999 136.194531 13.847230 1.211844
5474.802000 5474.800000 2.890000 2.279384 136.983520 14.019860 1.233992
5479.213000 5479.210000 2.900000 2.272774 137.741021 14.190900 1.255844
5483.641000 5483.640000 2.910000 2.266250 138.518774 14.364426 1.278161
5488.090000 5488.090000 2.930000 2.259663 139.761932 14.589169 1.304602
5492.559000 5492.560000 2.940000 2.253100 140.578888 14.771023 1.329170
5497.052000 5497.050000 2.950000 2.246444 141.402391 14.956801 1.353213
5501.561000 5501.560000 2.960000 2.239846 142.198474 15.140557 1.377936
5506.079000 5506.080000 2.980000 2.233306 143.498421 15.379208 1.407321
5510.629000 5510.630000 2.990000 2.226720 144.289556 15.566185 1.432209
5515.190000 5515.190000 3.000000 2.220127 145.207489 15.768826 1.459023
5519.781000 5519.780000 3.010000 2.213693 146.095807 15.967704 1.485957
5524.381000 5524.380000 3.030000 2.207203 147.451704 16.220823 1.518362
5529.000000 5529.000000 3.040000 2.200592 148.391712 16.432544 1.546825
5533.640000 5533.640000 3.050000 2.193744 149.331873 16.650277 1.577276
5538.302000 5538.300000 3.060000 2.187115 150.324019 16.872385 1.607743
5542.982000 5542.980000 3.080000 2.180375 151.874188 17.161666 1.644361
5547.681000 5547.680000 3.090000 2.173622 152.858835 17.389945 1.675608
5552.402000 5552.400000 3.100000 2.166785 153.816823 17.619014 1.707505
5557.127000 5557.130000 3.110000 2.160003 154.784439 17.850466 1.739845
5561.891000 5561.890000 3.130000 2.153275 156.211514 18.136696 1.777250
5566.661000 5566.660000 3.140000 2.146537 157.165257 18.370775 1.810531
5571.461000 5571.460000 3.150000 2.139720 158.133151 18.610336 1.844500
5576.272000 5576.270000 3.160000 2.133004 159.494319 18.897010 1.883722
5581.099000 5581.100000 3.180000 2.126361 161.314454 19.240026 1.928515
5585.950000 5585.950000 3.190000 2.119667 162.284078 19.485694 1.964396
5590.819000 5590.820000 3.200000 2.112868 163.202546 19.729672 1.999917
5595.709000 5595.710000 3.210000 2.106321 164.110056 19.969710 2.035706
5600.619000 5600.620000 3.230000 2.099635 165.571234 20.282639 2.079706
5605.540000 5605.540000 3.240000 2.092723 166.443756 20.530987 2.116226
5610.490000 5610.490000 3.250000 2.085941 167.360211 20.784504 2.154917
5615.452000 5615.450000 3.260000 2.079173 168.275127 21.040094 2.194413
5620.438000 5620.440000 3.280000 2.072365 169.687396 21.361526 2.240810
5625.439000 5625.440000 3.290000 2.065731 169.796516 21.517526 2.270371
5630.458000 5630.460000 3.300000 2.058918 170.525429 21.757652 2.309991
5635.498000 5635.500000 3.310000 2.052312 171.182518 21.986250 2.347617
5640.560000 5640.560000 3.330000 2.045415 172.669705 22.330780 2.398229
5645.640000 5645.640000 3.340000 2.038062 173.421239 22.593471 2.440912
5650.738000 5650.740000 3.350000 2.031666 174.192037 22.839485 2.482445
5655.858000 5655.860000 3.360000 2.024733 175.059987 23.112951 2.526810
5660.988000 5660.990000 3.380000 2.017319 176.655898 23.497297 2.583683
5666.150000 5666.150000 3.390000 2.011030 177.779492 23.795908 2.630968
5671.318000 5671.320000 3.400000 2.004152 178.875540 24.107819 2.680792
5676.519000 5676.520000 3.410000 1.997377 180.193239 24.450532 2.735176
5681.732000 5681.730000 3.430000 1.990531 181.929932 24.855780 2.796805
5686.961000 5686.960000 3.440000 1.983792 182.981447 25.168458 2.847525
5692.212000 5692.210000 3.450000 1.977064 183.890677 25.464336 2.899011
5697.481000 5697.480000 3.460000 1.970151 184.937847 25.786944 2.952332
5702.771000 5702.770000 3.480000 1.963320 186.747402 26.217758 3.019246
5708.082000 5708.080000 3.490000 1.956566 187.601592 26.516158 3.072120
