# XDI/1.0 BlueSky/1.5.0
# Beamline.name: 6BM
# Beamline.xray_source: NSLS-II three-pole wiggler
# Beamline.collimation: paraboloid mirror, 5 nm Rh on 30 nm Pt
# Beamline.focusing: not in use
# Beamline.harmonic_rejection: flat mirror, Si stripe, pitch = 7.0 mrad relative to beam
# Detector.i0: 10 cm N2
# Detector.i1: 25 cm N2
# Detector.i2: 25 cm N2
# Element.symbol: Ti
# Element.edge: K
# Facility.name: NSLS-II
# Facility.energy: 3.0
# Facility.current: 220.7
# Facility.mode: top-off
# Facility.gup: 301027
# Facility.saf: 304156
# Mono.name: Si(111)
# Mono.d_spacing: 3.1352584
# Mono.encoder_resolution: 0.0000050 deg/ct
# Mono.angle_offset: 16.0571090 deg
# Mono.scan_mode: pseudo channel cut
# Mono.scan_type: step
# Mono.direction: forward in energy
# Sample.name: Gd2TiO7
# Sample.prep: Powder in polyethylene glycol pellet
# Sample.x_position: -97.532 mm
# Sample.y_position: 117.543 mm
# Sample.wheel_position: -540.000 mm
# Scan.experimenters: Bruce Ravel, Martin Stennett
# Scan.edge_energy: 4966.0
# Scan.start_time: 2019-05-30T00:48:23
# Scan.end_time: 2019-05-30T01:31:10
# Scan.transient_id: 9776
# Scan.uid: 1c7c8df0-bf40-4247-b882-4646854c3fcf
# Scan.plot_hint: ln(I0/It)  --  ln($5/$6)
# Scan.sequence: merge of 3 scans
# Column.1: energy eV
# Column.2: requested_energy eV
# Column.3: measurement_time seconds
# Column.4: mutrans
# Column.5: i0
# Column.6: itrans
# Column.7: irefer
# /////
#  sample disk prepared by Martin
# -----
# energy   requested_energy   measurement_time   mutrans   i0   itrans   irefer
4765.994000 4766.000000 0.500000 3.614345 11.079095 0.298515 0.024497
4776.005000 4776.000000 0.500000 3.620010 11.267652 0.301776 0.024728
4786.008000 4786.000000 0.500000 3.594707 11.507855 0.316106 0.026288
4796.007000 4796.000000 0.500000 3.570270 11.743835 0.330568 0.027797
4806.006000 4806.000000 0.500000 3.545371 11.976421 0.345614 0.029526
4816.009000 4816.000000 0.500000 3.521508 12.203569 0.360677 0.030828
4826.007000 4826.000000 0.500000 3.498258 12.432076 0.376071 0.032863
4836.002000 4836.000000 0.500000 3.473997 12.659096 0.392340 0.034593
4845.999000 4846.000000 0.500000 3.450265 12.892984 0.409179 0.036079
4856.000000 4856.000000 0.500000 3.427125 13.121202 0.426170 0.038153
4866.012000 4866.000000 0.500000 3.404003 13.345101 0.443596 0.040627
4876.010000 4876.000000 0.500000 3.380260 13.570059 0.461909 0.042562
4886.000000 4886.000000 0.500000 3.357640 13.791207 0.480171 0.044851
4896.001000 4896.000000 0.500000 3.335229 14.002299 0.498569 0.047253
4906.000000 4906.000000 0.500000 3.312221 14.213787 0.517879 0.049713
4916.001000 4916.000000 0.500000 3.289018 14.422282 0.537811 0.052287
4925.999000 4926.000000 0.500000 3.266576 14.631271 0.557988 0.054877
4936.000000 4936.000000 0.500000 3.244014 14.835491 0.578687 0.057432
4937.999000 4938.000000 0.500000 3.239896 14.873656 0.582570 0.058035
4939.998000 4940.000000 0.500000 3.235403 14.911039 0.586665 0.058391
4942.001000 4942.000000 0.500000 3.230464 14.946312 0.590967 0.059245
4944.002000 4944.000000 0.500000 3.226706 14.980056 0.594533 0.059452
4946.005000 4946.000000 0.500000 3.222130 15.016003 0.598687 0.060342
4948.006000 4948.000000 0.500000 3.217405 15.047534 0.602786 0.060786
4950.001000 4950.000000 0.500000 3.212811 15.085106 0.607072 0.061478
4952.004000 4952.000000 0.500000 3.208583 15.114491 0.610834 0.061857
4954.004000 4954.000000 0.500000 3.203901 15.142126 0.614824 0.062188
4956.004000 4956.000000 0.500000 3.199337 15.173114 0.618905 0.062740
4956.249000 4956.250000 0.500000 3.198965 15.176454 0.619268 0.062924
4956.496000 4956.500000 0.500000 3.198382 15.179315 0.619744 0.062984
4956.744000 4956.750000 0.500000 3.198122 15.179334 0.619905 0.062719
4956.995000 4957.000000 0.500000 3.196783 15.182331 0.620860 0.062960
4957.245000 4957.250000 0.500000 3.196489 15.184052 0.621111 0.062912
4957.496000 4957.500000 0.500000 3.196056 15.188075 0.621545 0.062926
4957.746000 4957.750000 0.500000 3.195622 15.191949 0.621973 0.063259
4957.994000 4958.000000 0.500000 3.195122 15.231007 0.623886 0.063027
4958.244000 4958.250000 0.500000 3.194462 15.231508 0.624316 0.063306
4958.494000 4958.500000 0.500000 3.193629 15.235180 0.624988 0.063444
4958.746000 4958.750000 0.500000 3.193729 15.237656 0.625029 0.063370
4958.997000 4959.000000 0.500000 3.193058 15.240560 0.625569 0.063476
4959.245000 4959.250000 0.500000 3.192019 15.245830 0.626428 0.063468
4959.498000 4959.500000 0.500000 3.191664 15.245816 0.626656 0.063636
4959.748000 4959.750000 0.500000 3.191429 15.248340 0.626908 0.063435
4959.995000 4960.000000 0.500000 3.190794 15.255389 0.627591 0.063475
4960.246000 4960.250000 0.500000 3.189874 15.258108 0.628283 0.063599
4960.496000 4960.500000 0.500000 3.189416 15.259244 0.628621 0.063580
4960.744000 4960.750000 0.500000 3.188757 15.265460 0.629285 0.063614
4960.996000 4961.000000 0.500000 3.188153 15.267163 0.629739 0.063692
4961.248000 4961.250000 0.500000 3.187685 15.277158 0.630447 0.063709
4961.497000 4961.500000 0.500000 3.187228 15.279751 0.630841 0.063737
4961.747000 4961.750000 0.500000 3.186740 15.282479 0.631263 0.063700
4961.998000 4962.000000 0.500000 3.186045 15.286431 0.631868 0.063406
4962.245000 4962.250000 0.500000 3.185574 15.286660 0.632170 0.063359
4962.497000 4962.500000 0.500000 3.185673 15.291237 0.632304 0.063131
4962.746000 4962.750000 0.500000 3.184258 15.295503 0.633371 0.063109
4962.996000 4963.000000 0.500000 3.184138 15.300475 0.633654 0.062796
4963.248000 4963.250000 0.500000 3.184230 15.305553 0.633806 0.062432
4963.497000 4963.500000 0.500000 3.182689 15.310266 0.634974 0.061959
4963.749000 4963.750000 0.500000 3.182466 15.312112 0.635197 0.061167
4963.998000 4964.000000 0.500000 3.181963 15.316604 0.635702 0.059687
4964.246000 4964.250000 0.500000 3.181870 15.321961 0.635984 0.057105
4964.498000 4964.500000 0.500000 3.180971 15.325737 0.636712 0.053745
4964.744000 4964.750000 0.500000 3.181136 15.328267 0.636713 0.049581
4964.998000 4965.000000 0.500000 3.180262 15.332556 0.637445 0.046143
4965.251000 4965.250000 0.500000 3.180106 15.332878 0.637561 0.043989
4965.500000 4965.500000 0.500000 3.179312 15.336681 0.638223 0.043590
4965.748000 4965.750000 0.500000 3.178844 15.340759 0.638693 0.044492
4965.998000 4966.000000 0.500000 3.178832 15.345107 0.638883 0.046237
4966.250000 4966.250000 0.500000 3.178302 15.346867 0.639295 0.047887
4966.497000 4966.500000 0.500000 3.178293 15.352506 0.639534 0.049085
4966.747000 4966.750000 0.500000 3.178540 15.350369 0.639289 0.049976
4967.000000 4967.000000 0.500000 3.178700 15.350027 0.639173 0.050072
4967.250000 4967.250000 0.500000 3.178662 15.352768 0.639307 0.050027
4967.501000 4967.500000 0.500000 3.177726 15.357013 0.640087 0.049980
4967.751000 4967.750000 0.500000 3.177043 15.361878 0.640726 0.049110
4967.999000 4968.000000 0.500000 3.176628 15.363652 0.641063 0.048396
4968.248000 4968.250000 0.500000 3.176446 15.366984 0.641322 0.047691
4968.496000 4968.500000 0.500000 3.177099 15.370384 0.641047 0.046735
4968.749000 4968.750000 0.500000 3.177588 15.379517 0.641111 0.046249
4969.000000 4969.000000 0.500000 3.179765 15.376456 0.639596 0.045357
4969.250000 4969.250000 0.500000 3.180086 15.376306 0.639381 0.044747
4969.501000 4969.500000 0.500000 3.180638 15.375123 0.638977 0.044481
4969.749000 4969.750000 0.500000 3.179976 15.375215 0.639400 0.044196
4970.000000 4970.000000 0.500000 3.179135 15.383385 0.640281 0.044137
4970.249000 4970.250000 0.500000 3.178867 15.395475 0.640957 0.043972
4970.500000 4970.500000 0.500000 3.177971 15.405451 0.641955 0.043601
4970.749000 4970.750000 0.500000 3.176446 15.415262 0.643337 0.043585
4971.003000 4971.000000 0.500000 3.175336 15.423286 0.644385 0.043131
4971.251000 4971.250000 0.500000 3.173627 15.429385 0.645743 0.043094
4971.504000 4971.500000 0.500000 3.173004 15.436053 0.646426 0.042386
4971.750000 4971.750000 0.500000 3.172895 15.440658 0.646687 0.041603
4972.001000 4972.000000 0.500000 3.173381 15.448529 0.646703 0.041025
4972.251000 4972.250000 0.500000 3.173749 15.449853 0.646515 0.039911
4972.502000 4972.500000 0.500000 3.174977 15.492920 0.647527 0.039081
4972.750000 4972.750000 0.500000 3.175581 15.495405 0.647240 0.038389
4973.003000 4973.000000 0.500000 3.176370 15.497363 0.646810 0.037533
4973.252000 4973.250000 0.500000 3.176554 15.500871 0.646841 0.036870
4973.502000 4973.500000 0.500000 3.177059 15.503706 0.646629 0.035977
4973.750000 4973.750000 0.500000 3.177025 15.505555 0.646731 0.035323
4973.998000 4974.000000 0.500000 3.178012 15.508072 0.646200 0.034738
4974.251000 4974.250000 0.500000 3.177259 15.507436 0.646657 0.034342
4974.501000 4974.500000 0.500000 3.177121 15.510779 0.646887 0.033780
4974.753000 4974.750000 0.500000 3.176199 15.512416 0.647549 0.033128
4975.003000 4975.000000 0.500000 3.175255 15.509236 0.648029 0.032428
4975.252000 4975.250000 0.500000 3.174539 15.511551 0.648590 0.031682
4975.503000 4975.500000 0.500000 3.173497 15.511813 0.649278 0.031189
4975.747000 4975.750000 0.500000 3.173146 15.511388 0.649487 0.030683
4975.999000 4976.000000 0.500000 3.171796 15.512800 0.650424 0.030199
4976.251000 4976.250000 0.500000 3.172233 15.511751 0.650096 0.029516
4976.505000 4976.500000 0.500000 3.172129 15.510325 0.650099 0.029234
4976.752000 4976.750000 0.500000 3.172526 15.509677 0.649820 0.028617
4977.002000 4977.000000 0.500000 3.173009 15.519201 0.649902 0.028303
4977.251000 4977.250000 0.500000 3.174433 15.549540 0.650248 0.028133
4977.501000 4977.500000 0.500000 3.175610 15.552501 0.649605 0.027640
4977.750000 4977.750000 0.500000 3.176776 15.557866 0.649075 0.027442
4978.000000 4978.000000 0.500000 3.177588 15.562506 0.648740 0.027397
4978.253000 4978.250000 0.500000 3.178592 15.564297 0.648164 0.026985
4978.502000 4978.500000 0.500000 3.178818 15.565461 0.648065 0.027198
4978.754000 4978.750000 0.500000 3.179658 15.563555 0.647441 0.026686
4979.001000 4979.000000 0.500000 3.180636 15.565351 0.646885 0.026462
4979.251000 4979.250000 0.500000 3.181585 15.564590 0.646241 0.026593
4979.500000 4979.500000 0.500000 3.183361 15.563395 0.645041 0.026225
4979.751000 4979.750000 0.500000 3.184577 15.558595 0.644060 0.026110
4980.001000 4980.000000 0.500000 3.186393 15.556003 0.642782 0.025980
4980.250000 4980.250000 0.500000 3.189097 15.553904 0.640978 0.025755
4980.501000 4980.500000 0.500000 3.191809 15.548788 0.639017 0.025909
4980.754000 4980.750000 0.500000 3.195078 15.546133 0.636818 0.025426
4980.999000 4981.000000 0.500000 3.198988 15.547518 0.634397 0.025404
4981.251000 4981.250000 0.500000 3.203275 15.546330 0.631635 0.025182
4981.501000 4981.500000 0.500000 3.207878 15.549686 0.628846 0.024929
4981.753000 4981.750000 0.500000 3.213712 15.549689 0.625192 0.024911
4982.002000 4982.000000 0.500000 3.219592 15.551622 0.621589 0.024544
4982.254000 4982.250000 0.500000 3.226180 15.554005 0.617606 0.024545
4982.503000 4982.500000 0.500000 3.232250 15.557391 0.614027 0.024197
4982.751000 4982.750000 0.500000 3.237538 15.558718 0.610854 0.024101
4982.998000 4983.000000 0.500000 3.242471 15.557270 0.607799 0.023558
4983.249000 4983.250000 0.500000 3.246823 15.557789 0.605186 0.023535
4983.500000 4983.500000 0.500000 3.249437 15.556091 0.603515 0.023679
4983.753000 4983.750000 0.500000 3.252732 15.547219 0.601189 0.023621
4984.001000 4984.000000 0.500000 3.255695 15.551013 0.599557 0.023432
4984.252000 4984.250000 0.500000 3.257892 15.550831 0.598235 0.023308
4984.502000 4984.500000 0.500000 3.258761 15.553529 0.597815 0.023633
4984.753000 4984.750000 0.500000 3.258827 15.551953 0.597718 0.023537
4985.000000 4985.000000 0.500000 3.257674 15.552784 0.598439 0.023875
4985.254000 4985.250000 0.500000 3.255520 15.552435 0.599735 0.024131
4985.502000 4985.500000 0.500000 3.252289 15.553229 0.601678 0.024334
4985.753000 4985.750000 0.500000 3.248571 15.550782 0.603845 0.024452
4986.003000 4986.000000 0.500000 3.245014 15.550441 0.605973 0.024746
4986.253000 4986.250000 0.500000 3.241840 15.550492 0.607905 0.024991
4986.500000 4986.500000 0.500000 3.238989 15.548648 0.609544 0.025083
4986.750000 4986.750000 0.500000 3.236187 15.578831 0.612459 0.025030
4986.999000 4987.000000 0.500000 3.233705 15.577449 0.613918 0.025313
4987.252000 4987.250000 0.500000 3.231217 15.576427 0.615420 0.025527
4987.502000 4987.500000 0.500000 3.229298 15.578335 0.616669 0.025365
4987.752000 4987.750000 0.500000 3.227656 15.580213 0.617760 0.025548
4988.002000 4988.000000 0.500000 3.225873 15.582623 0.618951 0.025559
4988.251000 4988.250000 0.500000 3.224133 15.587660 0.620233 0.025715
4988.500000 4988.500000 0.500000 3.223065 15.594785 0.621182 0.025695
4988.751000 4988.750000 0.500000 3.221723 15.606527 0.622487 0.025837
4989.001000 4989.000000 0.500000 3.221785 15.617913 0.622904 0.025661
4989.252000 4989.250000 0.500000 3.221526 15.634389 0.623720 0.025837
4989.505000 4989.500000 0.500000 3.221540 15.644831 0.624118 0.025967
4989.751000 4989.750000 0.500000 3.222485 15.656066 0.623989 0.025844
4990.003000 4990.000000 0.500000 3.223718 15.665914 0.623610 0.026152
4990.251000 4990.250000 0.500000 3.225837 15.679299 0.622831 0.026028
4990.499000 4990.500000 0.500000 3.227097 15.691267 0.622518 0.026007
4990.749000 4990.750000 0.500000 3.228265 15.702600 0.622236 0.026049
4991.002000 4991.000000 0.500000 3.229937 15.713576 0.621630 0.026072
4991.254000 4991.250000 0.500000 3.231076 15.722769 0.621282 0.025904
4991.502000 4991.500000 0.500000 3.231802 15.734592 0.621303 0.025935
4991.751000 4991.750000 0.500000 3.232762 15.742405 0.621017 0.025951
4992.002000 4992.000000 0.500000 3.233381 15.747163 0.620818 0.026014
4992.251000 4992.250000 0.500000 3.233569 15.756547 0.621070 0.026164
4992.498000 4992.500000 0.500000 3.233395 15.764017 0.621472 0.026238
4992.752000 4992.750000 0.500000 3.232966 15.767561 0.621880 0.026135
4993.001000 4993.000000 0.500000 3.232292 15.772206 0.622482 0.026086
4993.253000 4993.250000 0.500000 3.231385 15.775842 0.623193 0.026094
4993.504000 4993.500000 0.500000 3.230209 15.779527 0.624072 0.026130
4993.751000 4993.750000 0.500000 3.229459 15.784632 0.624737 0.026076
4994.002000 4994.000000 0.500000 3.228229 15.790297 0.625733 0.026274
4994.248000 4994.250000 0.500000 3.227201 15.792091 0.626442 0.026312
4994.501000 4994.500000 0.500000 3.227000 15.796470 0.626747 0.026051
4994.750000 4994.750000 0.500000 3.226667 15.800909 0.627132 0.026183
4995.002000 4995.000000 0.500000 3.225749 15.807799 0.627982 0.026115
4995.251000 4995.250000 0.500000 3.225603 15.811399 0.628216 0.025817
4995.500000 4995.500000 0.500000 3.224872 15.814813 0.628806 0.026068
4995.752000 4995.750000 0.500000 3.224386 15.814461 0.629103 0.025701
4996.002000 4996.000000 0.700000 3.224355 22.116043 0.879809 0.035650
4997.092000 4997.080000 0.710000 3.221654 22.466249 0.896159 0.035359
4998.181000 4998.180000 0.730000 3.216615 23.095647 0.925899 0.035840
4999.296000 4999.290000 0.740000 3.210006 23.429250 0.945510 0.036035
5000.437000 5000.430000 0.750000 3.204363 23.785167 0.965314 0.036535
5001.586000 5001.580000 0.760000 3.201042 24.144043 0.983135 0.037759
5002.770000 5002.760000 0.780000 3.201385 24.827256 1.010615 0.038868
5003.956000 5003.950000 0.790000 3.202333 25.198084 1.024739 0.039689
5005.165000 5005.160000 0.800000 3.200785 25.576459 1.041735 0.040908
5006.399000 5006.390000 0.810000 3.193545 25.970456 1.065471 0.042846
5007.647000 5007.640000 0.830000 3.185656 26.669358 1.102805 0.045460
5008.917000 5008.910000 0.840000 3.177817 27.045223 1.127142 0.047420
5010.207000 5010.200000 0.850000 3.169109 27.430715 1.153209 0.049265
5011.516000 5011.510000 0.860000 3.161644 27.811152 1.177976 0.050767
5012.835000 5012.830000 0.880000 3.155883 28.500033 1.214128 0.052844
5014.184000 5014.180000 0.890000 3.151953 28.935881 1.237539 0.054295
5015.549000 5015.540000 0.900000 3.149822 29.311233 1.256276 0.055476
5016.938000 5016.930000 0.910000 3.148089 29.691962 1.274800 0.056830
5018.336000 5018.330000 0.930000 3.146289 30.400327 1.307562 0.058999
5019.757000 5019.750000 0.940000 3.142620 30.783412 1.328903 0.060254
5021.198000 5021.190000 0.950000 3.138404 31.174681 1.351487 0.061494
5022.649000 5022.650000 0.960000 3.133439 31.565609 1.375231 0.062995
5024.136000 5024.130000 0.980000 3.129591 32.293143 1.412378 0.064629
5025.630000 5025.630000 0.990000 3.126454 32.675579 1.433580 0.065652
5027.139000 5027.140000 1.000000 3.123934 33.067006 1.454409 0.066321
5028.677000 5028.680000 1.010000 3.122464 33.469278 1.474270 0.066861
5030.236000 5030.240000 1.030000 3.120765 34.187647 1.508463 0.067089
5031.817000 5031.810000 1.040000 3.118169 34.589831 1.530197 0.066970
5033.400000 5033.400000 1.050000 3.114655 34.988529 1.553280 0.066747
5035.011000 5035.010000 1.060000 3.111194 35.388703 1.576486 0.066024
5036.646000 5036.650000 1.080000 3.107930 36.216243 1.618629 0.066990
5038.295000 5038.300000 1.090000 3.105164 36.617446 1.641084 0.067245
5039.966000 5039.970000 1.100000 3.102742 37.022103 1.663250 0.068316
5041.645000 5041.650000 1.110000 3.100501 37.437570 1.685689 0.069337
5043.358000 5043.360000 1.130000 3.097489 38.186293 1.724589 0.071912
5045.090000 5045.090000 1.140000 3.094771 38.592709 1.747692 0.074096
5046.828000 5046.830000 1.150000 3.092804 39.006995 1.769932 0.076441
5048.598000 5048.600000 1.160000 3.090576 39.424860 1.792884 0.078912
5050.377000 5050.380000 1.180000 3.088168 40.186578 1.831928 0.082449
5052.178000 5052.180000 1.190000 3.084179 40.610208 1.858642 0.085552
5053.995000 5054.000000 1.200000 3.079607 41.040515 1.886929 0.088653
5055.836000 5055.840000 1.210000 3.075343 41.466651 1.914670 0.090861
5057.697000 5057.700000 1.230000 3.071657 42.238590 1.957519 0.093267
5059.576000 5059.580000 1.240000 3.068914 42.673449 1.983101 0.094225
5061.479000 5061.480000 1.250000 3.065717 43.108755 2.009760 0.095993
5063.395000 5063.400000 1.260000 3.061715 43.537355 2.037859 0.097889
5065.326000 5065.330000 1.280000 3.057479 44.331641 2.083849 0.101160
5067.287000 5067.290000 1.290000 3.052896 44.785218 2.114861 0.103129
5069.258000 5069.260000 1.300000 3.047980 45.315334 2.150429 0.105313
5071.257000 5071.260000 1.310000 3.042960 45.778702 2.183351 0.107540
5073.270000 5073.270000 1.330000 3.037692 46.583262 2.233464 0.110007
5075.299000 5075.300000 1.340000 3.032526 47.037908 2.266935 0.111383
5077.350000 5077.350000 1.350000 3.027874 47.503995 2.300080 0.112260
5079.417000 5079.420000 1.360000 3.023697 47.971347 2.332426 0.112124
5081.509000 5081.510000 1.380000 3.019120 48.786290 2.382928 0.112814
5083.610000 5083.610000 1.390000 3.014240 49.264053 2.418035 0.112617
5085.739000 5085.740000 1.400000 3.008884 49.743880 2.454707 0.112477
5087.891000 5087.890000 1.410000 3.003456 50.218135 2.491593 0.112487
5090.051000 5090.050000 1.430000 2.998206 51.066592 2.547036 0.114481
5092.224000 5092.230000 1.440000 2.993138 51.569437 2.585150 0.116570
5094.439000 5094.440000 1.450000 2.988240 52.079743 2.623571 0.120247
5096.659000 5096.660000 1.460000 2.983962 52.579496 2.660107 0.124910
5098.899000 5098.900000 1.480000 2.980134 53.440333 2.714034 0.131109
5101.163000 5101.160000 1.490000 2.975960 53.940064 2.750885 0.136994
5103.442000 5103.440000 1.500000 2.971206 54.454702 2.790357 0.142237
5105.743000 5105.740000 1.510000 2.966437 54.962089 2.829822 0.145916
5108.052000 5108.050000 1.530000 2.961735 55.834536 2.888278 0.149660
5110.390000 5110.390000 1.540000 2.956787 56.343521 2.929054 0.152288
5112.741000 5112.740000 1.550000 2.951989 56.856079 2.969925 0.154430
5115.122000 5115.120000 1.560000 2.947404 57.368441 3.010458 0.156566
5117.511000 5117.510000 1.580000 2.942644 58.257440 3.071693 0.160330
5119.924000 5119.920000 1.590000 2.938345 58.790852 3.113192 0.163113
5122.351000 5122.350000 1.600000 2.934145 59.315476 3.154182 0.166004
5124.799000 5124.800000 1.610000 2.930127 59.850187 3.195426 0.169487
5127.268000 5127.270000 1.630000 2.926174 60.766274 3.257172 0.173525
5129.759000 5129.760000 1.640000 2.921386 61.314528 3.302327 0.176514
5132.271000 5132.270000 1.650000 2.916242 61.863186 3.349078 0.179239
5134.793000 5134.790000 1.660000 2.911337 62.492989 3.399822 0.182399
5137.343000 5137.340000 1.680000 2.906514 63.495193 3.471042 0.185222
5139.900000 5139.900000 1.690000 2.902141 64.075395 3.518098 0.186940
5142.490000 5142.490000 1.700000 2.897286 64.643762 3.566567 0.188181
5145.092000 5145.090000 1.710000 2.892074 65.211434 3.616705 0.189965
5147.711000 5147.710000 1.730000 2.886899 66.162376 3.688486 0.193101
5150.351000 5150.350000 1.740000 2.881826 66.744249 3.739840 0.195657
5153.011000 5153.010000 1.750000 2.876116 67.325848 3.794029 0.200359
5155.691000 5155.690000 1.760000 2.870609 67.914135 3.848316 0.205193
5158.391000 5158.390000 1.780000 2.864693 68.881181 3.926291 0.212143
5161.110000 5161.110000 1.790000 2.859201 69.467764 3.981506 0.217400
5163.838000 5163.840000 1.800000 2.853936 70.062711 4.036784 0.222331
5166.602000 5166.600000 1.810000 2.848705 70.669912 4.093165 0.227539
5169.373000 5169.370000 1.830000 2.843919 71.643042 4.169441 0.234379
5172.170000 5172.170000 1.840000 2.838555 72.393257 4.235732 0.240771
5174.981000 5174.980000 1.850000 2.833513 72.977844 4.291531 0.246625
5177.812000 5177.810000 1.860000 2.828101 73.562997 4.349434 0.252591
5180.659000 5180.660000 1.880000 2.822557 74.572026 4.433582 0.259072
5183.530000 5183.530000 1.890000 2.816537 75.200378 4.497936 0.264029
5186.422000 5186.420000 1.900000 2.810583 75.800806 4.560949 0.268591
5189.319000 5189.320000 1.910000 2.805219 76.407669 4.622170 0.272793
5192.250000 5192.250000 1.930000 2.799816 77.416217 4.708551 0.278700
5195.200000 5195.200000 1.940000 2.794537 78.013984 4.770033 0.283179
5198.160000 5198.160000 1.950000 2.788855 78.579793 4.832002 0.287292
5201.142000 5201.140000 1.960000 2.782865 79.199324 4.899367 0.291604
5204.150000 5204.150000 1.980000 2.777169 80.245553 4.992433 0.296995
5207.172000 5207.170000 1.990000 2.771359 80.863501 5.060189 0.301132
5210.212000 5210.210000 2.000000 2.765898 81.671146 5.138734 0.306249
5213.269000 5213.270000 2.010000 2.760187 82.306426 5.208330 0.310842
5216.351000 5216.350000 2.030000 2.754725 83.363010 5.304091 0.318733
5219.448000 5219.450000 2.040000 2.749080 84.025044 5.376474 0.324527
5222.560000 5222.560000 2.050000 2.743842 84.688517 5.447387 0.330921
5225.699000 5225.700000 2.060000 2.738490 85.336918 5.518562 0.336957
5228.850000 5228.850000 2.080000 2.733234 86.396785 5.616530 0.344740
5232.030000 5232.030000 2.090000 2.728018 87.070358 5.689928 0.350934
5235.219000 5235.220000 2.100000 2.722481 87.761266 5.766911 0.358454
5238.431000 5238.430000 2.110000 2.716933 88.451542 5.844615 0.365661
5241.661000 5241.660000 2.130000 2.711106 89.542810 5.951311 0.376064
5244.921000 5244.920000 2.140000 2.705338 90.184520 6.028645 0.383983
5248.178000 5248.180000 2.150000 2.699763 90.310429 6.070782 0.389697
5251.472000 5251.470000 2.160000 2.693959 91.225098 6.167982 0.398842
5254.781000 5254.780000 2.180000 2.688380 92.696434 6.302521 0.410881
5258.110000 5258.110000 2.190000 2.682340 93.547935 6.398937 0.419553
5261.449000 5261.450000 2.200000 2.676392 94.282068 6.487628 0.428074
5264.821000 5264.820000 2.210000 2.670302 95.092862 6.583398 0.436262
5268.200000 5268.200000 2.230000 2.664053 96.298918 6.708694 0.445613
5271.601000 5271.600000 2.240000 2.657995 97.058626 6.802713 0.453304
5275.032000 5275.030000 2.250000 2.652019 97.915703 6.903918 0.461400
5278.472000 5278.470000 2.260000 2.646025 97.914139 6.945328 0.465542
5281.932000 5281.930000 2.280000 2.640125 99.935406 7.130636 0.479145
5285.399000 5285.400000 2.290000 2.634283 100.786217 7.233468 0.487687
5288.899000 5288.900000 2.300000 2.628470 101.555730 7.331178 0.495860
5292.418000 5292.420000 2.310000 2.622553 102.322883 7.430384 0.505796
5295.962000 5295.960000 2.330000 2.616772 103.606745 7.567253 0.517769
5299.509000 5299.510000 2.340000 2.610548 104.301479 7.665547 0.528074
5303.091000 5303.090000 2.350000 2.604141 105.072044 7.771825 0.538330
5306.681000 5306.680000 2.360000 2.598141 105.906025 7.880650 0.548806
5310.289000 5310.290000 2.380000 2.592073 107.171655 8.023380 0.561001
5313.922000 5313.920000 2.390000 2.585903 107.960325 8.132427 0.572421
5317.570000 5317.570000 2.400000 2.579935 108.737361 8.240003 0.582793
5321.241000 5321.240000 2.410000 2.573949 109.495179 8.347270 0.594123
5324.934000 5324.930000 2.430000 2.567523 110.641999 8.489084 0.607447
5328.639000 5328.640000 2.440000 2.561329 111.186021 8.583786 0.618864
5332.361000 5332.360000 2.450000 2.555001 111.874693 8.691784 0.630544
5336.110000 5336.110000 2.460000 2.548528 112.711311 8.813633 0.643192
5339.869000 5339.870000 2.480000 2.542291 113.976015 8.968313 0.659246
5343.660000 5343.660000 2.490000 2.535627 114.714161 9.086719 0.672496
5347.460000 5347.460000 2.500000 2.529833 115.305566 9.186654 0.684457
5351.281000 5351.280000 2.510000 2.523976 115.796698 9.279999 0.695728
5355.121000 5355.120000 2.530000 2.518255 116.458111 9.386535 0.707073
5358.980000 5358.980000 2.540000 2.512399 118.133887 9.577508 0.724538
5362.859000 5362.860000 2.550000 2.506553 118.806059 9.688485 0.735812
5366.761000 5366.760000 2.560000 2.500304 119.378573 9.796227 0.747449
5370.681000 5370.680000 2.580000 2.494220 120.382857 9.938915 0.760446
5374.609000 5374.610000 2.590000 2.488174 120.958943 10.047034 0.772758
5378.573000 5378.570000 2.600000 2.482126 121.529774 10.155722 0.784921
5382.540000 5382.540000 2.610000 2.475800 122.092267 10.267416 0.798241
5386.540000 5386.540000 2.630000 2.469362 123.085959 10.417864 0.814743
5390.551000 5390.550000 2.640000 2.463144 123.518903 10.519720 0.826923
5394.578000 5394.580000 2.650000 2.456680 124.099899 10.637682 0.841784
5398.629000 5398.630000 2.660000 2.450334 124.285127 10.721407 0.852874
5402.700000 5402.700000 2.680000 2.443864 125.292598 10.878495 0.870545
5406.793000 5406.790000 2.690000 2.437567 125.593766 10.973546 0.883156
5410.901000 5410.900000 2.700000 2.431340 125.936618 11.072227 0.896134
5415.018000 5415.020000 2.710000 2.425351 126.386170 11.178479 0.910566
5419.169000 5419.170000 2.730000 2.419153 126.730193 11.278582 0.924307
5423.330000 5423.330000 2.740000 2.412930 127.371152 11.406383 0.940092
5427.519000 5427.520000 2.750000 2.406814 128.056375 11.538122 0.956980
5431.720000 5431.720000 2.760000 2.400766 128.430192 11.642000 0.971114
5435.942000 5435.940000 2.780000 2.394453 129.324440 11.797318 0.990620
5440.180000 5440.180000 2.790000 2.388200 129.776758 11.912806 1.006009
5444.440000 5444.440000 2.800000 2.382112 130.229791 12.027415 1.021232
5448.719000 5448.720000 2.810000 2.375832 130.688877 12.145842 1.037562
5453.020000 5453.020000 2.830000 2.369348 131.650878 12.314820 1.057463
5457.341000 5457.340000 2.840000 2.362940 132.241605 12.449620 1.074931
5461.669000 5461.670000 2.850000 2.356543 132.842285 12.586439 1.092432
5466.031000 5466.030000 2.860000 2.349971 133.507118 12.732839 1.110712
5470.401000 5470.400000 2.880000 2.343578 134.595919 12.918978 1.132993
5474.803000 5474.800000 2.890000 2.337256 135.321345 13.071024 1.152842
5479.208000 5479.210000 2.900000 2.330825 136.276277 13.248150 1.174717
5483.641000 5483.640000 2.910000 2.324162 136.934726 13.401180 1.194920
5488.090000 5488.090000 2.930000 2.317448 138.074147 13.603685 1.219198
5492.563000 5492.560000 2.940000 2.310825 138.845185 13.770619 1.242305
5497.049000 5497.050000 2.950000 2.304232 139.605250 13.937528 1.263684
5501.561000 5501.560000 2.960000 2.297603 140.386345 14.108798 1.286661
5506.080000 5506.080000 2.980000 2.291028 141.923981 14.357368 1.315951
5510.632000 5510.630000 2.990000 2.284732 142.759419 14.533115 1.339819
5515.191000 5515.190000 3.000000 2.278226 143.686517 14.722972 1.364775
5519.780000 5519.780000 3.010000 2.271467 144.552904 14.912196 1.390548
5524.380000 5524.380000 3.030000 2.264962 145.901057 15.149495 1.421091
5529.001000 5529.000000 3.040000 2.258535 146.855027 15.346872 1.448087
5533.641000 5533.640000 3.050000 2.251919 147.822787 15.550526 1.475476
5538.303000 5538.300000 3.060000 2.245150 148.641119 15.742851 1.502306
5542.981000 5542.980000 3.080000 2.238496 150.046443 15.997776 1.536048
5547.679000 5547.680000 3.090000 2.232074 150.929912 16.195605 1.563315
5552.402000 5552.400000 3.100000 2.225457 151.882800 16.406137 1.592904
5557.132000 5557.130000 3.110000 2.218705 152.756823 16.612289 1.621812
5561.891000 5561.890000 3.130000 2.211926 154.200249 16.883303 1.657187
5566.661000 5566.660000 3.140000 2.205168 155.059330 17.092486 1.687003
5571.459000 5571.460000 3.150000 2.198444 155.955249 17.307226 1.718201
5576.270000 5576.270000 3.160000 2.191787 156.865830 17.524584 1.749319
5581.099000 5581.100000 3.180000 2.185097 158.239689 17.796738 1.787318
5585.949000 5585.950000 3.190000 2.178353 159.559579 18.066566 1.824120
5590.821000 5590.820000 3.200000 2.171676 160.433414 18.287236 1.856689
5595.712000 5595.710000 3.210000 2.165072 161.373696 18.516295 1.890102
5600.621000 5600.620000 3.230000 2.158260 162.743553 18.801112 1.930545
5605.540000 5605.540000 3.240000 2.151530 163.618874 19.029861 1.965424
5610.490000 5610.490000 3.250000 2.144845 164.518341 19.262815 2.000445
5615.448000 5615.450000 3.260000 2.138144 165.410701 19.497484 2.036718
5620.438000 5620.440000 3.280000 2.131308 166.726617 19.787447 2.079131
5625.438000 5625.440000 3.290000 2.124741 166.830500 19.930208 2.106373
5630.459000 5630.460000 3.300000 2.118189 167.562315 20.149258 2.142406
5635.501000 5635.500000 3.310000 2.111164 168.071344 20.352977 2.177169
5640.561000 5640.560000 3.330000 2.104404 170.039717 20.730945 2.229529
5645.641000 5645.640000 3.340000 2.096806 170.787733 20.980951 2.270491
5650.741000 5650.740000 3.350000 2.091223 171.437362 21.178670 2.305091
5655.863000 5655.860000 3.360000 2.084080 172.337063 21.442448 2.347435
5660.990000 5660.990000 3.380000 2.077400 174.222684 21.822326 2.402813
5666.150000 5666.150000 3.390000 2.070997 175.258286 22.093035 2.446738
5671.322000 5671.320000 3.400000 2.064217 176.381391 22.385928 2.493653
5676.520000 5676.520000 3.410000 2.057457 177.662762 22.701484 2.543721
5681.730000 5681.730000 3.430000 2.050858 179.309762 23.063656 2.598817
5686.960000 5686.960000 3.440000 2.043941 180.241359 23.344375 2.646257
5692.212000 5692.210000 3.450000 2.037423 181.117645 23.611319 2.691801
5697.477000 5697.480000 3.460000 2.030579 182.009237 23.890385 2.739540
5702.769000 5702.770000 3.480000 2.024110 183.421250 24.232014 2.794788
5708.077000 5708.080000 3.490000 2.017481 184.189975 24.495418 2.841034
