# XDI/1.0 BlueSky/1.5.0
# Beamline.name: 6BM
# Beamline.xray_source: NSLS-II three-pole wiggler
# Beamline.collimation: paraboloid mirror, 5 nm Rh on 30 nm Pt
# Beamline.focusing: not in use
# Beamline.harmonic_rejection: flat mirror, Si stripe, pitch = 7.0 mrad relative to beam
# Detector.i0: 10 cm N2
# Detector.i1: 25 cm N2
# Detector.i2: 25 cm N2
# Element.symbol: Ti
# Element.edge: K
# Facility.name: NSLS-II
# Facility.energy: 3.0
# Facility.current: 220.4
# Facility.mode: top-off
# Facility.gup: 301027
# Facility.saf: 304156
# Mono.name: Si(111)
# Mono.d_spacing: 3.1352584
# Mono.encoder_resolution: 0.0000050 deg/ct
# Mono.angle_offset: 16.0571090 deg
# Mono.scan_mode: pseudo channel cut
# Mono.scan_type: step
# Mono.direction: forward in energy
# Sample.name: FeTiO3 ilmentite
# Sample.prep: Powder in polyethylene glycol pellet
# Sample.x_position: -97.532 mm
# Sample.y_position: 117.543 mm
# Sample.wheel_position: -495.000 mm
# Scan.experimenters: Bruce Ravel, Martin Stennett
# Scan.edge_energy: 4966.0
# Scan.start_time: 2019-05-29T22:38:18
# Scan.end_time: 2019-05-29T23:21:07
# Scan.transient_id: 9767
# Scan.uid: c73218a9-3596-4db0-a2a7-6013c9c8c299
# Scan.plot_hint: ln(I0/It)  --  ln($5/$6)
# Scan.sequence: merge of 3 scans
# Column.1: energy eV
# Column.2: requested_energy eV
# Column.3: measurement_time seconds
# Column.4: mutrans
# Column.5: i0
# Column.6: itrans
# Column.7: irefer
# /////
#  sample disk prepared by Martin
# -----
# energy   requested_energy   measurement_time   mutrans   i0   itrans   irefer
4765.980000 4766.000000 0.500000 3.813591 11.010093 0.242998 0.020035
4776.007000 4776.000000 0.500000 3.795059 11.250485 0.252929 0.021135
4786.007000 4786.000000 0.500000 3.766456 11.485886 0.265712 0.022283
4796.008000 4796.000000 0.500000 3.739806 11.726561 0.278608 0.023556
4806.010000 4806.000000 0.500000 3.712023 11.970513 0.292419 0.024992
4816.006000 4816.000000 0.500000 3.685041 12.206256 0.306329 0.026602
4826.006000 4826.000000 0.500000 3.659155 12.439197 0.320367 0.028072
4836.007000 4836.000000 0.500000 3.632924 12.677401 0.335178 0.029833
4846.003000 4846.000000 0.500000 3.606178 12.916528 0.350758 0.031640
4856.008000 4856.000000 0.500000 3.580892 13.151956 0.366292 0.033247
4866.012000 4866.000000 0.500000 3.554909 13.381869 0.382510 0.035055
4876.009000 4876.000000 0.500000 3.530965 13.612357 0.398528 0.037107
4886.007000 4886.000000 0.500000 3.506039 13.836072 0.415301 0.039075
4896.006000 4896.000000 0.500000 3.481641 14.057702 0.432374 0.041093
4906.007000 4906.000000 0.500000 3.457796 14.282245 0.449881 0.043244
4916.003000 4916.000000 0.500000 3.433368 14.503495 0.468145 0.045708
4926.001000 4926.000000 0.500000 3.409761 14.725491 0.486664 0.048217
4936.003000 4936.000000 0.500000 3.386661 14.938302 0.505238 0.050514
4938.003000 4938.000000 0.500000 3.381866 14.978168 0.509022 0.051160
4939.999000 4940.000000 0.500000 3.377390 15.018848 0.512692 0.051478
4941.999000 4942.000000 0.500000 3.373307 15.055991 0.516067 0.051957
4944.006000 4944.000000 0.500000 3.367935 15.095198 0.520201 0.052457
4946.006000 4946.000000 0.500000 3.363575 15.132365 0.523755 0.052844
4948.008000 4948.000000 0.500000 3.359130 15.165560 0.527245 0.053415
4950.007000 4950.000000 0.500000 3.354984 15.203351 0.530750 0.053940
4952.004000 4952.000000 0.500000 3.351113 15.236789 0.533979 0.054154
4954.004000 4954.000000 0.500000 3.347156 15.270770 0.537294 0.054619
4956.005000 4956.000000 0.500000 3.342705 15.302062 0.540794 0.055180
4956.245000 4956.250000 0.500000 3.342469 15.305796 0.541053 0.055102
4956.494000 4956.500000 0.500000 3.342310 15.306394 0.541161 0.055130
4956.746000 4956.750000 0.500000 3.342214 15.313508 0.541465 0.054997
4956.995000 4957.000000 0.500000 3.341384 15.314107 0.541937 0.055141
4957.247000 4957.250000 0.500000 3.341011 15.319650 0.542337 0.055179
4957.495000 4957.500000 0.500000 3.340635 15.321800 0.542613 0.055244
4957.745000 4957.750000 0.500000 3.340017 15.325636 0.543084 0.055466
4957.996000 4958.000000 0.500000 3.339042 15.329433 0.543748 0.055493
4958.245000 4958.250000 0.500000 3.338807 15.334412 0.544054 0.055221
4958.496000 4958.500000 0.500000 3.338203 15.338837 0.544539 0.055421
4958.744000 4958.750000 0.500000 3.337755 15.340994 0.544860 0.055336
4958.998000 4959.000000 0.500000 3.337491 15.343881 0.545108 0.055560
4959.248000 4959.250000 0.500000 3.336887 15.350328 0.545665 0.055505
4959.497000 4959.500000 0.500000 3.336695 15.351454 0.545811 0.055552
4959.745000 4959.750000 0.500000 3.336343 15.354165 0.546098 0.055451
4959.996000 4960.000000 0.500000 3.336041 15.357944 0.546397 0.055704
4960.246000 4960.250000 0.500000 3.335150 15.362472 0.547045 0.055438
4960.495000 4960.500000 0.500000 3.335197 15.365982 0.547147 0.055733
4960.746000 4960.750000 0.500000 3.334399 15.370425 0.547739 0.055548
4960.996000 4961.000000 0.500000 3.334811 15.376107 0.547717 0.055627
4961.247000 4961.250000 0.500000 3.334193 15.380851 0.548227 0.055418
4961.498000 4961.500000 0.500000 3.333371 15.383273 0.548760 0.055642
4961.748000 4961.750000 0.500000 3.333734 15.390440 0.548820 0.055595
4961.997000 4962.000000 0.500000 3.333221 15.395997 0.549298 0.055511
4962.248000 4962.250000 0.500000 3.333253 15.398107 0.549357 0.055235
4962.494000 4962.500000 0.500000 3.332979 15.403650 0.549702 0.055163
4962.747000 4962.750000 0.500000 3.332818 15.407918 0.549946 0.054894
4962.999000 4963.000000 0.500000 3.332349 15.410131 0.550281 0.054683
4963.247000 4963.250000 0.500000 3.332553 15.415818 0.550372 0.054359
4963.498000 4963.500000 0.500000 3.332912 15.421641 0.550387 0.053974
4963.747000 4963.750000 0.500000 3.332325 15.425150 0.550829 0.053050
4963.998000 4964.000000 0.500000 3.332364 15.438897 0.551300 0.051831
4964.247000 4964.250000 0.500000 3.332621 15.448511 0.551506 0.049668
4964.496000 4964.500000 0.500000 3.332629 15.450606 0.551573 0.046817
4964.749000 4964.750000 0.500000 3.333219 15.466953 0.551832 0.042982
4964.995000 4965.000000 0.500000 3.334486 15.468496 0.551198 0.040123
4965.250000 4965.250000 0.500000 3.335281 15.470984 0.550833 0.038172
4965.501000 4965.500000 0.500000 3.336504 15.476501 0.550344 0.037887
4965.748000 4965.750000 0.500000 3.339811 15.481190 0.548712 0.038628
4965.999000 4966.000000 0.500000 3.343855 15.485569 0.546653 0.039769
4966.248000 4966.250000 0.500000 3.351533 15.487163 0.542562 0.040681
4966.497000 4966.500000 0.500000 3.362995 15.489170 0.536454 0.041557
4966.752000 4966.750000 0.500000 3.379961 15.489998 0.527384 0.041489
4967.000000 4967.000000 0.500000 3.394646 15.492919 0.519817 0.041297
4967.251000 4967.250000 0.500000 3.398900 15.496264 0.517759 0.040880
4967.501000 4967.500000 0.500000 3.393249 15.499712 0.520796 0.040759
4967.751000 4967.750000 0.500000 3.390084 15.506039 0.522620 0.040173
4967.999000 4968.000000 0.500000 3.396645 15.513086 0.519474 0.039583
4968.247000 4968.250000 0.500000 3.418094 15.516123 0.508626 0.038282
4968.496000 4968.500000 0.500000 3.454401 15.519154 0.490621 0.036120
4968.748000 4968.750000 0.500000 3.497897 15.522059 0.469877 0.034327
4968.997000 4969.000000 0.500000 3.529621 15.524329 0.455131 0.033009
4969.251000 4969.250000 0.500000 3.535839 15.521782 0.452232 0.032202
4969.499000 4969.500000 0.500000 3.520767 15.524226 0.459154 0.032458
4969.752000 4969.750000 0.500000 3.496064 15.524746 0.470690 0.033216
4969.998000 4970.000000 0.500000 3.470957 15.531117 0.482724 0.033777
4970.249000 4970.250000 0.500000 3.449953 15.541337 0.493299 0.034233
4970.499000 4970.500000 0.500000 3.433386 15.552630 0.501920 0.034872
4970.747000 4970.750000 0.500000 3.421253 15.562847 0.508427 0.034984
4971.004000 4971.000000 0.500000 3.413403 15.573779 0.512841 0.034780
4971.251000 4971.250000 0.500000 3.409938 15.580139 0.514820 0.034691
4971.503000 4971.500000 0.500000 3.409134 15.586497 0.515436 0.034151
4971.749000 4971.750000 0.500000 3.410727 15.625988 0.515931 0.033740
4971.999000 4972.000000 0.500000 3.413054 15.630186 0.514870 0.032825
4972.250000 4972.250000 0.500000 3.414902 15.633147 0.514020 0.032147
4972.497000 4972.500000 0.500000 3.415557 15.637602 0.513823 0.031659
4972.749000 4972.750000 0.500000 3.416303 15.642109 0.513589 0.031149
4973.001000 4973.000000 0.500000 3.417762 15.640991 0.512797 0.030032
4973.253000 4973.250000 0.500000 3.419226 15.645934 0.512200 0.029444
4973.501000 4973.500000 0.500000 3.422504 15.649855 0.510662 0.028799
4973.751000 4973.750000 0.500000 3.426894 15.649336 0.508429 0.028333
4973.997000 4974.000000 0.500000 3.434791 15.651981 0.504545 0.027537
4974.250000 4974.250000 0.500000 3.443590 15.656701 0.500281 0.026812
4974.501000 4974.500000 0.500000 3.453639 15.657498 0.495215 0.026106
4974.751000 4974.750000 0.500000 3.467472 15.658983 0.488495 0.025274
4975.003000 4975.000000 0.500000 3.483043 15.659776 0.480898 0.024476
4975.253000 4975.250000 0.500000 3.500199 15.659513 0.472772 0.023699
4975.501000 4975.500000 0.500000 3.518544 15.658291 0.464140 0.022597
4975.751000 4975.750000 0.500000 3.538554 15.657955 0.454984 0.022062
4975.999000 4976.000000 0.500000 3.558472 15.659225 0.446084 0.021267
4976.252000 4976.250000 0.500000 3.577720 15.691529 0.438445 0.020545
4976.501000 4976.500000 0.500000 3.595745 15.693005 0.430601 0.019868
4976.751000 4976.750000 0.500000 3.611793 15.691538 0.423718 0.019406
4977.002000 4977.000000 0.500000 3.626322 15.695370 0.417687 0.019280
4977.252000 4977.250000 0.500000 3.638942 15.696281 0.412508 0.018333
4977.499000 4977.500000 0.500000 3.648032 15.697829 0.408839 0.018487
4977.749000 4977.750000 0.500000 3.658288 15.698985 0.404704 0.017672
4978.001000 4978.000000 0.500000 3.668168 15.704752 0.400846 0.017544
4978.251000 4978.250000 0.500000 3.678859 15.706020 0.396611 0.017139
4978.504000 4978.500000 0.500000 3.690494 15.707536 0.392012 0.017099
4978.751000 4978.750000 0.500000 3.703910 15.709428 0.386870 0.016675
4979.004000 4979.000000 0.500000 3.718292 15.706469 0.381234 0.016249
4979.250000 4979.250000 0.500000 3.734063 15.707498 0.375386 0.016089
4979.501000 4979.500000 0.500000 3.752143 15.702985 0.368508 0.015816
4979.749000 4979.750000 0.500000 3.773571 15.699300 0.360684 0.015387
4980.002000 4980.000000 0.500000 3.798370 15.699972 0.351769 0.015186
4980.250000 4980.250000 0.500000 3.825173 15.697734 0.342453 0.014908
4980.503000 4980.500000 0.500000 3.853621 15.693289 0.332653 0.014329
4980.750000 4980.750000 0.500000 3.883643 15.689810 0.322868 0.014016
4981.002000 4981.000000 0.500000 3.916074 15.688190 0.312523 0.013405
4981.250000 4981.250000 0.500000 3.946111 15.689652 0.303352 0.013254
4981.501000 4981.500000 0.500000 3.976762 15.692432 0.294198 0.012787
4981.751000 4981.750000 0.500000 4.005507 15.693396 0.285911 0.012418
4982.001000 4982.000000 0.500000 4.034575 15.695218 0.277663 0.011769
4982.253000 4982.250000 0.500000 4.058859 15.696564 0.271030 0.011794
4982.505000 4982.500000 0.500000 4.079377 15.695358 0.265451 0.011719
4982.750000 4982.750000 0.500000 4.097178 15.698393 0.260906 0.011659
4983.002000 4983.000000 0.500000 4.112472 15.700720 0.256975 0.011236
4983.248000 4983.250000 0.500000 4.121648 15.700925 0.254674 0.011171
4983.501000 4983.500000 0.500000 4.127582 15.698562 0.253090 0.010967
4983.751000 4983.750000 0.500000 4.131048 15.695183 0.252161 0.010998
4984.001000 4984.000000 0.500000 4.133467 15.694113 0.251530 0.011080
4984.252000 4984.250000 0.500000 4.136465 15.693604 0.250771 0.010937
4984.500000 4984.500000 0.500000 4.139380 15.697079 0.250097 0.011127
4984.751000 4984.750000 0.500000 4.144274 15.696941 0.248884 0.011039
4984.999000 4985.000000 0.500000 4.150773 15.697009 0.247283 0.010877
4985.252000 4985.250000 0.500000 4.158063 15.700279 0.245521 0.010974
4985.500000 4985.500000 0.500000 4.165758 15.699338 0.243637 0.011072
4985.753000 4985.750000 0.500000 4.174490 15.699882 0.241495 0.011111
4986.003000 4986.000000 0.500000 4.185768 15.699127 0.238774 0.010762
4986.254000 4986.250000 0.500000 4.196572 15.698743 0.236190 0.011044
4986.499000 4986.500000 0.500000 4.209375 15.696193 0.233200 0.010739
4986.751000 4986.750000 0.500000 4.222176 15.692300 0.230163 0.010688
4987.001000 4987.000000 0.500000 4.237311 15.688017 0.226659 0.010772
4987.252000 4987.250000 0.500000 4.252919 15.688230 0.223137 0.010559
4987.502000 4987.500000 0.500000 4.269528 15.686243 0.219435 0.010499
4987.753000 4987.750000 0.500000 4.283354 15.687464 0.216422 0.010437
4988.004000 4988.000000 0.500000 4.294820 15.693634 0.214034 0.010272
4988.253000 4988.250000 0.500000 4.303535 15.700585 0.212282 0.010297
4988.503000 4988.500000 0.500000 4.305810 15.708924 0.211915 0.009979
4988.750000 4988.750000 0.500000 4.302430 15.717047 0.212733 0.010148
4989.001000 4989.000000 0.500000 4.294001 15.730701 0.214717 0.010200
4989.248000 4989.250000 0.500000 4.282753 15.741862 0.217279 0.010252
4989.503000 4989.500000 0.500000 4.266779 15.754560 0.221008 0.010571
4989.751000 4989.750000 0.500000 4.251250 15.764880 0.224613 0.010791
4990.003000 4990.000000 0.500000 4.234314 15.778717 0.228663 0.010966
4990.251000 4990.250000 0.500000 4.218666 15.788662 0.232372 0.010912
4990.502000 4990.500000 0.500000 4.203254 15.801243 0.236174 0.011272
4990.751000 4990.750000 0.500000 4.190119 15.811685 0.239447 0.011373
4991.001000 4991.000000 0.500000 4.178587 15.820261 0.242354 0.011287
4991.253000 4991.250000 0.500000 4.168087 15.835400 0.245177 0.011504
4991.503000 4991.500000 0.500000 4.158342 15.843842 0.247699 0.011437
4991.753000 4991.750000 0.500000 4.149231 15.852030 0.250106 0.011669
4992.002000 4992.000000 0.500000 4.142714 15.859019 0.251844 0.011562
4992.251000 4992.250000 0.500000 4.133904 15.869209 0.254218 0.011865
4992.499000 4992.500000 0.500000 4.127860 15.873781 0.255822 0.011764
4992.749000 4992.750000 0.500000 4.120424 15.878291 0.257811 0.012048
4993.002000 4993.000000 0.500000 4.115097 15.883607 0.259292 0.012216
4993.254000 4993.250000 0.500000 4.111159 15.884509 0.260337 0.012050
4993.504000 4993.500000 0.500000 4.105573 15.891287 0.261905 0.012090
4993.753000 4993.750000 0.500000 4.102541 15.895546 0.262769 0.012156
4994.003000 4994.000000 0.500000 4.100015 15.903364 0.263559 0.012053
4994.251000 4994.250000 0.500000 4.096721 15.908171 0.264502 0.012171
4994.502000 4994.500000 0.500000 4.095001 15.910995 0.265010 0.012145
4994.750000 4994.750000 0.500000 4.093918 15.911255 0.265300 0.012061
4995.002000 4995.000000 0.500000 4.093280 15.956771 0.266230 0.012111
4995.253000 4995.250000 0.500000 4.093557 15.959454 0.266199 0.012178
4995.502000 4995.500000 0.500000 4.093903 15.964369 0.266187 0.012189
4995.753000 4995.750000 0.500000 4.096506 16.019067 0.266403 0.012122
4996.001000 4996.000000 0.700000 4.098594 22.334736 0.370668 0.016574
4997.092000 4997.080000 0.710000 4.115553 22.688376 0.370195 0.016475
4998.185000 4998.180000 0.730000 4.143130 23.321195 0.370209 0.016195
4999.297000 4999.290000 0.740000 4.168926 23.661541 0.366008 0.015787
5000.437000 5000.430000 0.750000 4.183010 24.018765 0.366348 0.015972
5001.583000 5001.580000 0.760000 4.179436 24.383384 0.373237 0.016168
5002.765000 5002.760000 0.780000 4.161495 25.079727 0.390857 0.017077
5003.953000 5003.950000 0.790000 4.139440 25.451122 0.405477 0.017504
5005.164000 5005.160000 0.800000 4.114574 25.833947 0.421931 0.018701
5006.397000 5006.390000 0.810000 4.090699 26.229014 0.438761 0.019324
5007.644000 5007.640000 0.830000 4.071145 26.934710 0.459436 0.020674
5008.915000 5008.910000 0.840000 4.048935 27.317752 0.476434 0.021745
5010.208000 5010.200000 0.850000 4.018273 27.738240 0.498878 0.023114
5011.517000 5011.510000 0.860000 3.990058 28.145062 0.520653 0.024432
5012.835000 5012.830000 0.880000 3.969862 28.847622 0.544518 0.025785
5014.187000 5014.180000 0.890000 3.955318 29.223948 0.559718 0.026608
5015.547000 5015.540000 0.900000 3.945857 29.604241 0.572389 0.027189
5016.933000 5016.930000 0.910000 3.939989 29.985411 0.583163 0.028163
5018.335000 5018.330000 0.930000 3.936141 30.698447 0.599334 0.029134
5019.757000 5019.750000 0.940000 3.928565 31.087696 0.611559 0.029820
5021.198000 5021.190000 0.950000 3.919395 31.477149 0.624923 0.030726
5022.656000 5022.650000 0.960000 3.912627 31.950485 0.638620 0.031437
5024.137000 5024.130000 0.980000 3.910775 32.679154 0.654398 0.032131
5025.630000 5025.630000 0.990000 3.912362 33.071983 0.661214 0.032395
5027.139000 5027.140000 1.000000 3.914081 33.464868 0.667925 0.032696
5028.687000 5028.680000 1.010000 3.915774 33.872498 0.674914 0.032770
5030.239000 5030.240000 1.030000 3.918611 34.602639 0.687512 0.032992
5031.816000 5031.810000 1.040000 3.922586 35.000785 0.692642 0.032606
5033.407000 5033.400000 1.050000 3.929210 35.401464 0.695940 0.032100
5035.018000 5035.010000 1.060000 3.936285 35.807817 0.698977 0.031688
5036.652000 5036.650000 1.080000 3.943407 36.554150 0.708491 0.031776
5038.292000 5038.300000 1.090000 3.948089 36.956820 0.712963 0.031728
5039.965000 5039.970000 1.100000 3.950005 37.365012 0.719451 0.032127
5041.644000 5041.650000 1.110000 3.948944 37.772205 0.728061 0.032586
5043.356000 5043.360000 1.130000 3.946448 38.519735 0.744326 0.033618
5045.089000 5045.090000 1.140000 3.941905 38.933312 0.755749 0.034711
5046.826000 5046.830000 1.150000 3.935002 39.347713 0.769078 0.035681
5048.601000 5048.600000 1.160000 3.927009 39.768224 0.783536 0.037095
5050.379000 5050.380000 1.180000 3.920486 40.529852 0.803767 0.038960
5052.178000 5052.180000 1.190000 3.914552 40.947893 0.816889 0.040272
5053.999000 5054.000000 1.200000 3.908610 41.380576 0.830443 0.041625
5055.834000 5055.840000 1.210000 3.902505 41.809288 0.844179 0.042697
5057.698000 5057.700000 1.230000 3.898694 42.591284 0.863255 0.043737
5059.577000 5059.580000 1.240000 3.896329 43.028300 0.874179 0.044288
5061.479000 5061.480000 1.250000 3.895137 43.462440 0.884054 0.045006
5063.397000 5063.400000 1.260000 3.892027 43.897332 0.895679 0.045873
5065.332000 5065.330000 1.280000 3.888151 44.697910 0.915561 0.047607
5067.290000 5067.290000 1.290000 3.884894 45.139107 0.927614 0.048227
5069.258000 5069.260000 1.300000 3.881457 45.582211 0.939940 0.049265
5071.258000 5071.260000 1.310000 3.877767 46.035277 0.952793 0.049927
5073.268000 5073.270000 1.330000 3.874022 46.846953 0.973227 0.051032
5075.298000 5075.300000 1.340000 3.868458 47.296128 0.988040 0.051699
5077.351000 5077.350000 1.350000 3.861403 47.767870 1.004968 0.052079
5079.423000 5079.420000 1.360000 3.851780 48.230466 1.024520 0.052654
5081.509000 5081.510000 1.380000 3.842794 49.046228 1.051237 0.052639
5083.611000 5083.610000 1.390000 3.834619 49.516761 1.070033 0.053112
5085.740000 5085.740000 1.400000 3.829774 49.982427 1.085348 0.052411
5087.891000 5087.890000 1.410000 3.826809 50.456044 1.098884 0.052763
5090.046000 5090.050000 1.430000 3.823075 51.297060 1.121372 0.053713
5092.231000 5092.230000 1.440000 3.817666 51.785856 1.138204 0.054554
5094.442000 5094.440000 1.450000 3.809207 52.285842 1.158956 0.056444
5096.661000 5096.660000 1.460000 3.799649 52.773277 1.180994 0.058393
5098.901000 5098.900000 1.480000 3.788392 53.628112 1.213703 0.062043
5101.160000 5101.160000 1.490000 3.777535 54.115167 1.238090 0.064735
5103.442000 5103.440000 1.500000 3.767887 54.611568 1.261575 0.067809
5105.745000 5105.740000 1.510000 3.759648 55.144718 1.284437 0.069735
5108.053000 5108.050000 1.530000 3.752929 56.098667 1.315461 0.071455
5110.390000 5110.390000 1.540000 3.747388 56.599938 1.334584 0.072423
5112.739000 5112.740000 1.550000 3.741400 57.103923 1.354552 0.073729
5115.120000 5115.120000 1.560000 3.735127 57.604665 1.375027 0.075209
5117.513000 5117.510000 1.580000 3.730422 58.487300 1.402683 0.076842
5119.922000 5119.920000 1.590000 3.726212 59.003170 1.421023 0.077912
5122.353000 5122.350000 1.600000 3.721711 59.526349 1.440096 0.079214
5124.801000 5124.800000 1.610000 3.718470 60.046018 1.457380 0.080758
5127.271000 5127.270000 1.630000 3.716770 60.950622 1.481856 0.082492
5129.759000 5129.760000 1.640000 3.715720 61.490536 1.496549 0.083690
5132.271000 5132.270000 1.650000 3.714051 62.036091 1.512350 0.084906
5134.792000 5134.790000 1.660000 3.711990 62.574282 1.528620 0.085286
5137.342000 5137.340000 1.680000 3.708554 63.510720 1.556838 0.087231
5139.901000 5139.900000 1.690000 3.704542 64.142068 1.578636 0.087833
5142.488000 5142.490000 1.700000 3.699422 64.767734 1.602204 0.088822
5145.091000 5145.090000 1.710000 3.695224 65.325968 1.622818 0.089088
5147.711000 5147.710000 1.730000 3.690834 66.265260 1.653392 0.090375
5150.351000 5150.350000 1.740000 3.685781 66.991809 1.679999 0.091898
5153.011000 5153.010000 1.750000 3.678704 67.557146 1.706208 0.093743
5155.691000 5155.690000 1.760000 3.670429 68.136199 1.735121 0.096087
5158.390000 5158.390000 1.780000 3.661155 69.108002 1.776262 0.099812
5161.111000 5161.110000 1.790000 3.651659 69.691263 1.808359 0.102710
5163.838000 5163.840000 1.800000 3.641199 70.277710 1.842730 0.105404
5166.600000 5166.600000 1.810000 3.629637 70.871609 1.879919 0.108243
5169.374000 5169.370000 1.830000 3.617998 71.835561 1.927821 0.112323
5172.171000 5172.170000 1.840000 3.608836 72.423317 1.961466 0.115360
5174.978000 5174.980000 1.850000 3.601857 73.011156 1.991222 0.118603
5177.810000 5177.810000 1.860000 3.597085 73.581208 2.016379 0.120969
5180.659000 5180.660000 1.880000 3.591791 74.575471 2.054470 0.124445
5183.530000 5183.530000 1.890000 3.587373 75.193019 2.080659 0.126372
5186.421000 5186.420000 1.900000 3.583419 75.774174 2.105049 0.128405
5189.321000 5189.320000 1.910000 3.580618 76.378066 2.127779 0.129906
5192.251000 5192.250000 1.930000 3.577359 77.363114 2.162253 0.132469
5195.202000 5195.200000 1.940000 3.573482 77.939280 2.186824 0.133967
5198.157000 5198.160000 1.950000 3.567876 78.504327 2.215041 0.135892
5201.142000 5201.140000 1.960000 3.562278 79.116756 2.244869 0.137818
5204.150000 5204.150000 1.980000 3.557169 80.158146 2.286071 0.140693
5207.170000 5207.170000 1.990000 3.551948 80.761535 2.315329 0.142122
5210.209000 5210.210000 2.000000 3.544921 81.371821 2.349277 0.144554
5213.267000 5213.270000 2.010000 3.537009 81.992129 2.385981 0.146657
5216.352000 5216.350000 2.030000 3.528483 83.049562 2.437456 0.150581
5219.449000 5219.450000 2.040000 3.519800 83.688694 2.477632 0.153918
5222.561000 5222.560000 2.050000 3.510751 84.344665 2.519753 0.157234
5225.700000 5225.700000 2.060000 3.502336 84.979250 2.560165 0.160819
5228.851000 5228.850000 2.080000 3.494015 86.042518 2.613863 0.164875
5232.030000 5232.030000 2.090000 3.484789 86.705336 2.658407 0.168774
5235.218000 5235.220000 2.100000 3.475904 87.396716 2.703508 0.172657
5238.431000 5238.430000 2.110000 3.467380 88.086461 2.748180 0.176683
5241.657000 5241.660000 2.130000 3.459578 89.163655 2.803571 0.181648
5244.922000 5244.920000 2.140000 3.453016 89.820245 2.842819 0.185506
5248.179000 5248.180000 2.150000 3.448465 89.925796 2.859136 0.188411
5251.472000 5251.470000 2.160000 3.442817 90.939356 2.907744 0.192975
5254.777000 5254.780000 2.180000 3.437112 92.504850 2.974717 0.198426
5258.113000 5258.110000 2.190000 3.432424 93.384126 3.017114 0.202269
5261.447000 5261.450000 2.200000 3.427534 94.069323 3.054140 0.205676
5264.821000 5264.820000 2.210000 3.422692 94.875100 3.095251 0.209484
5268.200000 5268.200000 2.230000 3.416974 96.079291 3.152520 0.213975
5271.602000 5271.600000 2.240000 3.410397 96.859260 3.199091 0.217947
5275.030000 5275.030000 2.250000 3.403668 97.735363 3.249811 0.221842
5278.472000 5278.470000 2.260000 3.396859 97.570198 3.266484 0.223936
5281.929000 5281.930000 2.280000 3.390602 99.583195 3.354796 0.230288
5285.400000 5285.400000 2.290000 3.382486 100.465105 3.412089 0.234828
5288.900000 5288.900000 2.300000 3.373476 101.465329 3.477251 0.240403
5292.419000 5292.420000 2.310000 3.365031 102.253905 3.533986 0.245168
5295.961000 5295.960000 2.330000 3.357431 103.551419 3.606133 0.251676
5299.509000 5299.510000 2.340000 3.349921 104.432092 3.664225 0.257001
5303.090000 5303.090000 2.350000 3.342319 105.231229 3.720431 0.262852
5306.680000 5306.680000 2.360000 3.334812 106.059301 3.777970 0.268125
5310.290000 5310.290000 2.380000 3.326761 107.340076 3.854503 0.274700
5313.922000 5313.920000 2.390000 3.319048 108.134371 3.913092 0.280413
5317.568000 5317.570000 2.400000 3.311724 108.885978 3.969249 0.285918
5321.239000 5321.240000 2.410000 3.304954 109.482824 4.018112 0.290708
5324.927000 5324.930000 2.430000 3.297983 110.520812 4.084565 0.296976
5328.642000 5328.640000 2.440000 3.290858 111.034391 4.132926 0.303404
5332.360000 5332.360000 2.450000 3.283205 111.752797 4.191598 0.309026
5336.107000 5336.110000 2.460000 3.276126 112.528584 4.250675 0.315485
5339.872000 5339.870000 2.480000 3.268298 113.747887 4.330533 0.323406
5343.659000 5343.660000 2.490000 3.260694 114.432314 4.389816 0.330530
5347.459000 5347.460000 2.500000 3.252786 114.973946 4.445614 0.336467
5351.282000 5351.280000 2.510000 3.245853 115.468938 4.495827 0.342309
5355.120000 5355.120000 2.530000 3.237492 116.049560 4.556358 0.348597
5358.979000 5358.980000 2.540000 3.231220 117.566989 4.644984 0.356351
5362.861000 5362.860000 2.550000 3.223755 118.226412 4.706048 0.362416
5366.764000 5366.760000 2.560000 3.216463 118.752117 4.761580 0.368387
5370.678000 5370.680000 2.580000 3.209555 119.690974 4.832473 0.374787
5374.611000 5374.610000 2.590000 3.202351 120.203016 4.888241 0.380963
5378.570000 5378.570000 2.600000 3.195023 120.716413 4.945216 0.387733
5382.540000 5382.540000 2.610000 3.187928 121.238149 5.001957 0.394444
5386.538000 5386.540000 2.630000 3.180638 122.180508 5.077718 0.402180
5390.550000 5390.550000 2.640000 3.173333 122.603098 5.132637 0.409244
5394.582000 5394.580000 2.650000 3.166264 123.413787 5.203236 0.417315
5398.631000 5398.630000 2.660000 3.158832 123.594874 5.249750 0.422688
5402.701000 5402.700000 2.680000 3.151009 124.566246 5.332550 0.432158
5406.789000 5406.790000 2.690000 3.143288 124.842855 5.385814 0.438483
5410.899000 5410.900000 2.700000 3.135257 125.140019 5.442173 0.446104
5415.019000 5415.020000 2.710000 3.127534 125.599132 5.504471 0.454068
5419.172000 5419.170000 2.730000 3.120163 125.986009 5.562288 0.460972
5423.330000 5423.330000 2.740000 3.112523 126.584546 5.631567 0.469370
5427.518000 5427.520000 2.750000 3.104907 126.989011 5.692757 0.477564
5431.721000 5431.720000 2.760000 3.098105 127.353835 5.748071 0.484994
5435.941000 5435.940000 2.780000 3.091124 128.399229 5.835860 0.495323
5440.180000 5440.180000 2.790000 3.083822 128.889231 5.901059 0.504079
5444.440000 5444.440000 2.800000 3.076689 129.321044 5.963222 0.512096
5448.722000 5448.720000 2.810000 3.069695 129.786247 6.026676 0.520549
5453.023000 5453.020000 2.830000 3.062773 130.969690 6.123874 0.531752
5457.337000 5457.340000 2.840000 3.055697 131.665400 6.200095 0.540982
5461.668000 5461.670000 2.850000 3.048817 132.229968 6.269663 0.549904
5466.035000 5466.030000 2.860000 3.041519 132.864347 6.345937 0.559266
5470.401000 5470.400000 2.880000 3.034022 133.976454 6.447183 0.571529
5474.798000 5474.800000 2.890000 3.026151 134.655352 6.531056 0.581316
5479.209000 5479.210000 2.900000 3.018198 135.272857 6.613395 0.592068
5483.640000 5483.640000 2.910000 3.010280 135.926263 6.698163 0.602672
5488.092000 5488.090000 2.930000 3.002121 137.030734 6.807924 0.615989
5492.560000 5492.560000 2.940000 2.993712 137.761010 6.902002 0.628113
5497.050000 5497.050000 2.950000 2.984849 138.478626 6.999719 0.640805
5501.561000 5501.560000 2.960000 2.976608 139.263572 7.097647 0.652722
5506.081000 5506.080000 2.980000 2.968258 140.448239 7.218038 0.667610
5510.631000 5510.630000 2.990000 2.959964 141.251583 7.319808 0.680596
5515.188000 5515.190000 3.000000 2.951620 142.087355 7.424795 0.694329
5519.777000 5519.780000 3.010000 2.943548 142.933107 7.529510 0.708088
5524.381000 5524.380000 3.030000 2.935664 144.265167 7.659860 0.724082
5528.999000 5529.000000 3.040000 2.927765 145.141382 7.767475 0.738659
5533.640000 5533.640000 3.050000 2.919917 146.013066 7.875704 0.753256
5538.299000 5538.300000 3.060000 2.912356 146.873468 7.982240 0.767798
5542.978000 5542.980000 3.080000 2.904820 148.267379 8.118928 0.785816
5547.680000 5547.680000 3.090000 2.897209 149.076799 8.225642 0.800417
5552.400000 5552.400000 3.100000 2.889576 150.253490 8.354099 0.817589
5557.131000 5557.130000 3.110000 2.882068 151.192111 8.469636 0.833105
5561.893000 5561.890000 3.130000 2.874507 152.565975 8.611495 0.850945
5566.661000 5566.660000 3.140000 2.866328 153.501135 8.735433 0.868898
5571.457000 5571.460000 3.150000 2.858126 154.399999 8.858911 0.886097
5576.268000 5576.270000 3.160000 2.850326 155.545782 8.994570 0.904233
5581.100000 5581.100000 3.180000 2.842350 157.089017 9.156550 0.925486
5585.951000 5585.950000 3.190000 2.834536 157.993646 9.281524 0.942715
5590.821000 5590.820000 3.200000 2.826334 158.891739 9.411158 0.962051
5595.709000 5595.710000 3.210000 2.818255 159.772034 9.540032 0.980396
5600.620000 5600.620000 3.230000 2.810275 161.162483 9.700169 1.002884
5605.540000 5605.540000 3.240000 2.802077 162.034621 9.832964 1.021516
5610.488000 5610.490000 3.250000 2.793770 162.944043 9.970615 1.041500
5615.448000 5615.450000 3.260000 2.785931 164.081093 10.119202 1.062910
5620.438000 5620.440000 3.280000 2.777850 165.427917 10.285025 1.086677
5625.441000 5625.440000 3.290000 2.770890 165.452954 10.358456 1.101131
5630.461000 5630.460000 3.300000 2.762348 166.180813 10.493266 1.122088
5635.499000 5635.500000 3.310000 2.754737 166.506822 10.594167 1.139171
5640.561000 5640.560000 3.330000 2.746217 167.982771 10.779520 1.165284
5645.640000 5645.640000 3.340000 2.738005 168.619272 10.909597 1.186808
5650.740000 5650.740000 3.350000 2.730369 169.233700 11.033257 1.207228
5655.862000 5655.860000 3.360000 2.722266 169.930640 11.168860 1.228751
5660.988000 5660.990000 3.380000 2.714395 171.326049 11.349477 1.255894
5666.150000 5666.150000 3.390000 2.706205 172.268696 11.505834 1.280768
5671.317000 5671.320000 3.400000 2.698234 173.384872 11.673008 1.306592
5676.519000 5676.520000 3.410000 2.690111 174.543465 11.846884 1.333306
5681.730000 5681.730000 3.430000 2.682269 176.033234 12.042082 1.363013
5686.959000 5686.960000 3.440000 2.674328 176.913940 12.198785 1.388966
5692.208000 5692.210000 3.450000 2.666416 177.792968 12.356770 1.414772
5697.476000 5697.480000 3.460000 2.658313 178.646775 12.517127 1.441263
5702.769000 5702.770000 3.480000 2.649932 179.913592 12.711988 1.472439
5708.078000 5708.080000 3.490000 2.641673 180.671956 12.871424 1.499650
