# XDI/1.0 BlueSky/1.10.0 BMM/2023-1.0-py310-tiled
# Beamline.name: BMM (06BM) -- Beamline for Materials Measurement (NIST)
# Beamline.xray_source: NSLS-II three-pole wiggler
# Beamline.collimation: paraboloid mirror, 5 nm Rh on 30 nm Pt
# Beamline.focusing: not in use
# Beamline.harmonic_rejection: flat mirror, Pt stripe, pitch = 7.0 mrad relative to beam
# Beamline.software: Bluesky 1.10.0, Ophyd 1.7.0, DataBroker 2.0.0b13, Python 3.10.8, 2023-1.0-py310-tiled
# Detector.I0: 10 cm N2
# Detector.I1: 25 cm N2
# Detector.I2: 25 cm N2
# Element.symbol: Bi
# Element.edge: L1
# Element.reference: Bi
# Element.reference_material: BiO2
# Facility.name: NSLS-II
# Facility.energy: 3.0
# Facility.current: 399.5
# Facility.mode: top-off
# Facility.GUP: 301027
# Facility.SAF: 310583
# Facility.cycle: 2023-2
# Mono.name: Si(111)
# Mono.d_spacing: 3.1351860
# Mono.encoder_resolution: 0.0000050 deg/ct
# Mono.angle_offset: 16.0754326 deg
# Mono.scan_mode: pseudo channel cut
# Mono.scan_type: step
# Mono.direction: forward in energy
# Sample.name: Bi2Ce2Ti4O12
# Sample.prep: Powder in PEG pellet
# Sample.x: 145.711 mm
# Sample.y: 114.376 mm
# Sample.SDD_position: 205.000 mm
# Scan.experimenters: Bruce Ravel
# Scan.edge_energy: 16387.5
# Scan.start_time: 2023-06-27T14:09:15
# Scan.end_time: 2023-06-27T14:15:59
# Scan.transient_id: 85146
# Scan.uid: 42c52521-970d-427b-a5f2-51b2dc4054de
# Scan.plot_hint: ln(I0/It)  --  ln($5/$6)
# Column.1: energy eV
# Column.2: requested_energy eV
# Column.3: measurement_time seconds
# Column.4: xmu 
# Column.5: I0 nA
# Column.6: It nA
# Column.7: Ir nA
# ///////////
# sample courtesy Martin Stennett, University of Sheffield
# -----------
# energy  requested_energy  measurement_time  xmu  I0  It  Ir
  16187.495  16187.500  0.500  -0.104576  21.595829  23.976554  9.129152
  16197.522  16197.500  0.500  -0.105278  21.557890  23.951224  9.130406
  16207.515  16207.500  0.500  -0.106166  21.514777  23.924571  9.132393
  16217.486  16217.500  0.500  -0.106902  21.465743  23.887610  9.131055
  16227.515  16227.500  0.500  -0.107705  21.417261  23.852807  9.129767
  16237.534  16237.500  0.500  -0.108373  21.315495  23.755339  9.105457
  16247.612  16247.500  0.500  -0.109324  21.308607  23.770248  9.119888
  16257.494  16257.500  0.500  -0.110181  21.245163  23.719811  9.111629
  16267.515  16267.500  0.500  -0.110730  21.212174  23.695973  9.113487
  16277.526  16277.500  0.500  -0.111301  21.163762  23.655405  9.109266
  16287.491  16287.500  0.500  -0.112355  21.114202  23.624892  9.105749
  16297.538  16297.500  0.500  -0.112959  21.061142  23.579757  9.098493
  16307.481  16307.500  0.500  -0.113652  20.968573  23.492407  9.072350
  16317.495  16317.500  0.500  -0.114208  20.961666  23.497730  9.080357
  16327.521  16327.500  0.500  -0.114612  20.917431  23.457606  9.072521
  16337.466  16337.500  0.500  -0.115066  20.871635  23.416875  9.058817
  16347.540  16347.500  0.500  -0.115384  20.819071  23.365335  9.036079
  16357.498  16357.500  0.500  -0.115287  20.769860  23.307831  9.003237
  16359.444  16359.500  0.500  -0.115171  20.757289  23.291024  8.989574
  16361.461  16361.500  0.500  -0.114984  20.747557  23.275751  8.978321
  16363.455  16363.500  0.500  -0.114902  20.738772  23.264006  8.964996
  16365.449  16365.500  0.500  -0.114680  20.730030  23.249034  8.949301
  16367.456  16367.500  0.500  -0.114334  20.720964  23.230831  8.931829
  16369.463  16369.500  0.500  -0.113835  20.704279  23.200540  8.908182
  16371.436  16371.500  0.500  -0.113258  20.658826  23.136243  8.867148
  16373.432  16373.500  0.500  -0.112560  20.604505  23.059304  8.815686
  16375.441  16375.500  0.500  -0.111475  20.625365  23.057633  8.788802
  16377.450  16377.500  0.500  -0.110447  20.654909  23.066931  8.754564
  16377.709  16377.800  0.500  -0.110044  20.658931  23.062116  8.747185
  16378.026  16378.100  0.500  -0.110081  20.657931  23.061864  8.739626
  16378.332  16378.400  0.500  -0.109517  20.733996  23.133733  8.760378
  16378.649  16378.700  0.500  -0.109304  20.731887  23.126451  8.750653
  16378.931  16379.000  0.500  -0.108967  20.730317  23.116903  8.738941
  16379.248  16379.300  0.500  -0.108881  20.725398  23.109445  8.728051
  16379.554  16379.600  0.500  -0.108404  20.725134  23.098127  8.714662
  16379.860  16379.900  0.500  -0.108206  20.724552  23.092890  8.703332
  16380.177  16380.200  0.500  -0.107734  20.725572  23.083141  8.690590
  16380.483  16380.500  0.500  -0.107312  20.723524  23.071106  8.675349
  16380.753  16380.800  0.500  -0.107091  20.716164  23.057831  8.659237
  16381.059  16381.100  0.500  -0.106379  20.722184  23.048118  8.646126
  16381.353  16381.400  0.500  -0.106179  20.713001  23.033297  8.627367
  16381.670  16381.700  0.500  -0.105654  20.711678  23.019722  8.610967
  16381.976  16382.000  0.500  -0.104966  20.712414  23.004706  8.590479
  16382.281  16382.300  0.500  -0.104488  20.708167  22.988996  8.571370
  16382.587  16382.600  0.500  -0.103848  20.709268  22.975517  8.553230
  16382.869  16382.900  0.500  -0.103510  20.706157  22.964310  8.532340
  16383.175  16383.200  0.500  -0.102837  20.704950  22.947525  8.509889
  16383.481  16383.500  0.500  -0.102130  20.702925  22.929061  8.484138
  16383.787  16383.800  0.500  -0.101322  20.699474  22.906708  8.458171
  16384.104  16384.100  0.500  -0.100722  20.698932  22.892382  8.431112
  16384.398  16384.400  0.500  -0.099734  20.700218  22.871201  8.406237
  16384.680  16384.700  0.500  -0.099027  20.691540  22.845460  8.375803
  16384.986  16385.000  0.500  -0.098032  20.693013  22.824360  8.345167
  16385.304  16385.300  0.500  -0.097186  20.687594  22.799075  8.311564
  16385.598  16385.600  0.500  -0.096217  20.690508  22.780216  8.279436
  16385.892  16385.900  0.500  -0.095119  20.688428  22.752926  8.246245
  16386.174  16386.200  0.500  -0.094033  20.687461  22.727155  8.211691
  16386.480  16386.500  0.500  -0.093042  20.680050  22.696509  8.171714
  16386.786  16386.800  0.500  -0.091927  20.681627  22.672963  8.134471
  16387.104  16387.100  0.500  -0.090645  20.680483  22.642662  8.092957
  16387.374  16387.400  0.500  -0.089356  20.675283  22.607802  8.052257
  16387.680  16387.700  0.500  -0.088220  20.670416  22.576822  8.009396
  16387.974  16388.000  0.500  -0.086831  20.672937  22.548232  7.970211
  16388.280  16388.300  0.500  -0.085588  20.670298  22.517347  7.927901
  16388.574  16388.600  0.500  -0.084217  20.668448  22.484483  7.883546
  16388.880  16388.900  0.500  -0.082734  20.666297  22.448829  7.839310
  16389.186  16389.200  0.500  -0.081531  20.666328  22.421877  7.795502
  16389.457  16389.500  0.500  -0.080303  20.661955  22.389610  7.754877
  16389.763  16389.800  0.500  -0.078820  20.663496  22.358094  7.713639
  16390.057  16390.100  0.500  -0.077642  20.658255  22.326121  7.670540
  16390.375  16390.400  0.500  -0.076343  20.657914  22.296757  7.630654
  16390.693  16390.700  0.500  -0.075068  20.655917  22.266207  7.593578
  16390.987  16391.000  0.500  -0.073862  20.655020  22.238389  7.556452
  16391.269  16391.300  0.500  -0.072955  20.652761  22.215800  7.525468
  16391.564  16391.600  0.500  -0.072074  20.650083  22.193365  7.497338
  16391.870  16391.900  0.500  -0.071134  20.650457  22.172922  7.470474
  16392.176  16392.200  0.500  -0.070778  20.642861  22.156865  7.445397
  16392.482  16392.500  0.500  -0.069956  20.645775  22.141794  7.428465
  16392.776  16392.800  0.500  -0.069598  20.641780  22.129579  7.411115
  16393.071  16393.100  0.500  -0.069360  20.637991  22.120257  7.397939
  16393.365  16393.400  0.500  -0.068994  20.638973  22.113213  7.389056
  16393.683  16393.700  0.500  -0.068990  20.634387  22.108213  7.384994
  16394.001  16394.000  0.500  -0.069042  20.635046  22.110063  7.381224
  16394.283  16394.300  0.500  -0.069392  20.629851  22.112227  7.382363
  16394.590  16394.600  0.500  -0.069476  20.626407  22.110392  7.387074
  16394.884  16394.900  0.500  -0.069964  20.622726  22.117245  7.393438
  16395.190  16395.200  0.500  -0.070425  20.622077  22.126746  7.403671
  16395.496  16395.500  0.500  -0.071129  20.617733  22.137677  7.417531
  16395.803  16395.800  0.500  -0.071690  20.619134  22.151601  7.430160
  16396.074  16396.100  0.500  -0.072451  20.614809  22.163800  7.447429
  16396.403  16396.400  0.500  -0.072869  20.614656  22.172919  7.463885
  16396.710  16396.700  0.500  -0.073533  20.614161  22.187098  7.483203
  16397.016  16397.000  0.500  -0.074337  20.612450  22.203111  7.502486
  16397.322  16397.300  0.500  -0.075203  20.609320  22.218974  7.522996
  16397.605  16397.600  0.500  -0.075876  20.607342  22.231789  7.540265
  16397.899  16397.900  0.500  -0.076586  20.599427  22.239038  7.556196
  16398.194  16398.200  0.500  -0.077223  20.606433  22.260776  7.576741
  16398.524  16398.500  0.500  -0.077709  20.599013  22.263587  7.593572
  16398.842  16398.800  0.500  -0.078417  20.595396  22.275438  7.612156
  16399.101  16399.100  0.500  -0.079179  20.593532  22.290398  7.627940
  16399.407  16399.400  0.500  -0.079548  20.594071  22.299215  7.643040
  16399.702  16399.700  0.500  -0.080089  20.591106  22.308056  7.658575
  16400.008  16400.000  0.500  -0.080628  20.588558  22.317319  7.672792
  16400.326  16400.300  0.500  -0.081143  20.582892  22.322681  7.686518
  16400.609  16400.600  0.500  -0.081467  20.579062  22.325757  7.695617
  16400.904  16400.900  0.500  -0.081972  20.575043  22.332676  7.709296
  16401.199  16401.200  0.500  -0.082364  20.570275  22.336258  7.717946
  16401.517  16401.500  0.500  -0.082742  20.565838  22.339879  7.727707
  16401.823  16401.800  0.500  -0.083003  20.557282  22.336418  7.734453
  16402.118  16402.100  0.500  -0.083351  20.552879  22.339391  7.741531
  16402.413  16402.400  0.500  -0.083577  20.544952  22.335824  7.749540
  16402.695  16402.700  0.500  -0.083845  20.544467  22.341294  7.756964
  16402.990  16403.000  0.500  -0.084159  20.538142  22.341428  7.763288
  16403.320  16403.300  0.500  -0.084551  20.532614  22.344165  7.770739
  16403.615  16403.600  0.500  -0.084722  20.532957  22.348358  7.775635
  16403.910  16403.900  0.500  -0.084758  20.534052  22.350372  7.783602
  16404.204  16404.200  0.500  -0.085274  20.531703  22.359339  7.791115
  16404.499  16404.500  0.500  -0.085434  20.530785  22.361918  7.795488
  16404.806  16404.800  0.500  -0.085594  20.534256  22.369276  7.803662
  16405.100  16405.100  0.500  -0.085871  20.534868  22.376140  7.809798
  16405.395  16405.400  0.500  -0.085961  20.538210  22.381796  7.813521
  16405.678  16405.700  0.500  -0.086123  20.541778  22.389304  7.819851
  16405.985  16406.000  0.500  -0.086353  20.533759  22.385726  7.824588
  16406.291  16406.300  0.500  -0.086479  20.537960  22.393113  7.831039
  16406.610  16406.600  0.500  -0.086518  20.539124  22.395273  7.834862
  16406.893  16406.900  0.500  -0.086810  20.532918  22.395035  7.837990
  16407.176  16407.200  0.500  -0.086987  20.535896  22.402239  7.842209
  16407.471  16407.500  0.500  -0.087168  20.532544  22.402637  7.846026
  16407.789  16407.800  0.500  -0.087333  20.529515  22.403043  7.848800
  16408.072  16408.100  0.500  -0.087406  20.532380  22.407791  7.852755
  16408.403  16408.400  0.500  -0.087577  20.526431  22.405142  7.854645
  16408.650  16408.700  0.500  -0.087669  20.522492  22.402901  7.856005
  16408.957  16409.000  0.500  -0.087789  20.520251  22.403147  7.859397
  16409.276  16409.300  0.500  -0.087966  20.519786  22.406611  7.862247
  16409.582  16409.600  0.500  -0.088078  20.517821  22.406972  7.863964
  16409.901  16409.900  0.500  -0.088137  20.516630  22.406994  7.867634
  16410.184  16410.200  0.500  -0.088113  20.514056  22.403634  7.870140
  16410.491  16410.500  0.500  -0.088178  20.513520  22.404505  7.872599
  16410.786  16410.800  0.500  -0.088327  20.512421  22.406643  7.875368
  16411.093  16411.100  0.500  -0.088342  20.512143  22.406679  7.878297
  16411.399  16411.400  0.500  -0.088705  20.507142  22.409352  7.880719
  16411.683  16411.700  0.500  -0.088541  20.505603  22.403983  7.882182
  16412.001  16412.000  0.500  -0.088837  20.503323  22.408123  7.883493
  16412.284  16412.300  0.500  -0.088861  20.504646  22.410121  7.886540
  16412.473  16412.500  0.500  -0.088758  20.498809  22.401435  7.885956
  16413.500  16413.490  0.500  -0.089003  20.492636  22.400175  7.892061
  16414.515  16414.490  0.500  -0.088998  20.492559  22.399970  7.897498
  16415.542  16415.510  0.500  -0.089105  20.484778  22.393860  7.898558
  16416.581  16416.560  0.500  -0.089049  20.478541  22.385800  7.897737
  16417.632  16417.620  0.500  -0.088908  20.472889  22.376465  7.893490
  16418.742  16418.700  0.500  -0.088820  20.463483  22.364221  7.886586
  16419.853  16419.800  0.500  -0.088443  20.459713  22.351670  7.878130
  16420.951  16420.920  0.500  -0.088100  20.438784  22.321136  7.861733
  16422.086  16422.060  0.500  -0.087773  20.427829  22.301886  7.846755
  16423.220  16423.210  0.500  -0.087414  20.435428  22.302167  7.841229
  16424.402  16424.390  0.500  -0.087203  20.437957  22.300215  7.834042
  16425.596  16425.580  0.500  -0.087080  20.431932  22.290919  7.824228
  16426.790  16426.800  0.500  -0.086709  20.435732  22.286775  7.819025
  16428.031  16428.030  0.500  -0.086733  20.422500  22.272896  7.809037
  16429.273  16429.280  0.500  -0.086697  20.413267  22.262012  7.799557
  16430.585  16430.550  0.500  -0.086702  20.409836  22.258397  7.796757
  16431.887  16431.840  0.500  -0.086797  20.402086  22.252045  7.791143
  16433.188  16433.150  0.500  -0.086762  20.396712  22.245419  7.788287
  16434.525  16434.480  0.500  -0.086846  20.388963  22.238819  7.785612
  16435.886  16435.830  0.500  -0.087129  20.373221  22.227946  7.782230
  16437.224  16437.200  0.500  -0.087133  20.360671  22.214343  7.775880
  16438.609  16438.580  0.500  -0.087309  20.351109  22.207827  7.774960
  16439.994  16439.990  0.500  -0.087058  20.343696  22.194161  7.768006
  16441.427  16441.410  0.500  -0.087296  20.332092  22.186771  7.767461
  16442.849  16442.850  0.500  -0.087283  20.318916  22.172104  7.763272
  16444.329  16444.310  0.500  -0.087391  20.289730  22.142663  7.754656
  16445.822  16445.790  0.500  -0.087550  20.293887  22.150706  7.758753
  16447.316  16447.290  0.500  -0.087495  20.315453  22.173042  7.768146
  16448.845  16448.810  0.500  -0.088039  20.313666  22.183138  7.774503
  16450.374  16450.350  0.500  -0.088358  20.307927  22.183961  7.775298
  16451.951  16451.910  0.500  -0.088764  20.301811  22.186277  7.780724
  16453.529  16453.480  0.500  -0.089049  20.294325  22.184417  7.785028
  16455.083  16455.080  0.500  -0.089510  20.289844  22.189752  7.790918
  16456.684  16456.690  0.500  -0.090057  20.275340  22.186017  7.795803
  16458.310  16458.330  0.500  -0.090338  20.271067  22.187580  7.802298
  16459.960  16459.980  0.500  -0.090523  20.250209  22.168845  7.802652
  16461.646  16461.650  0.500  -0.090856  20.239076  22.164032  7.808233
  16463.356  16463.340  0.500  -0.091116  20.246626  22.178085  7.817618
  16465.078  16465.050  0.500  -0.091278  20.238883  22.173188  7.822229
  16466.812  16466.780  0.500  -0.091496  20.233415  22.172027  7.824655
  16468.571  16468.530  0.500  -0.091494  20.222845  22.160399  7.825556
  16470.294  16470.290  0.500  -0.091442  20.217069  22.152914  7.823788
  16472.065  16472.080  0.500  -0.091576  20.206745  22.144577  7.824766
  16473.872  16473.880  0.500  -0.091334  20.199996  22.131819  7.821967
  16475.692  16475.710  0.500  -0.091590  20.190272  22.126836  7.821886
  16477.571  16477.550  0.500  -0.091712  20.179545  22.117778  7.820968
  16479.404  16479.410  0.500  -0.091697  20.169259  22.106165  7.817231
  16481.296  16481.290  0.500  -0.091848  20.157196  22.096280  7.816133
  16483.224  16483.190  0.500  -0.091995  20.153279  22.095238  7.815672
  16485.129  16485.110  0.500  -0.091907  20.147437  22.086878  7.816794
  16487.046  16487.050  0.500  -0.092060  20.137794  22.079698  7.812262
  16489.024  16489.010  0.500  -0.092119  20.124503  22.066413  7.810910
  16490.966  16490.980  0.500  -0.092264  20.117404  22.061838  7.808978
  16492.968  16492.980  0.500  -0.092526  20.107657  22.056933  7.808991
  16495.018  16494.990  0.500  -0.092657  20.096971  22.048103  7.807854
  16497.045  16497.020  0.500  -0.092890  20.088462  22.043904  7.806404
  16499.096  16499.080  0.500  -0.092993  20.077351  22.033974  7.804142
  16501.184  16501.150  0.500  -0.093152  20.071507  22.031063  7.805090
  16503.248  16503.240  0.500  -0.093287  20.050923  22.011426  7.799839
  16505.337  16505.350  0.500  -0.093534  20.036238  22.000751  7.798440
  16507.474  16507.480  0.500  -0.093698  20.032547  22.000307  7.798591
  16509.611  16509.620  0.500  -0.093731  20.027119  21.995076  7.798441
  16511.809  16511.790  0.500  -0.093982  20.016042  21.988418  7.797561
  16513.995  16513.980  0.500  -0.094156  20.002589  21.977471  7.796051
  16516.218  16516.180  0.500  -0.094520  19.992256  21.974112  7.798465
  16518.406  16518.400  0.500  -0.094622  19.989746  21.973593  7.801756
  16520.666  16520.650  0.500  -0.094761  20.042973  22.035175  7.825699
  16522.902  16522.910  0.500  -0.095105  20.029152  22.027544  7.826183
  16525.188  16525.190  0.500  -0.095311  20.015550  22.017131  7.825411
  16527.485  16527.490  0.500  -0.095461  20.009071  22.013306  7.830476
  16529.820  16529.810  0.500  -0.095749  19.997489  22.006901  7.829090
  16532.178  16532.150  0.500  -0.096010  19.978044  21.991239  7.829465
  16534.502  16534.500  0.500  -0.096224  19.964475  21.981001  7.828860
  16536.886  16536.880  0.500  -0.096449  19.959056  21.979981  7.833778
  16539.271  16539.270  0.500  -0.096612  19.949637  21.973193  7.834695
  16541.669  16541.690  0.500  -0.096965  19.936163  21.966091  7.833265
  16544.151  16544.120  0.500  -0.097192  19.929170  21.963388  7.836715
  16546.586  16546.570  0.500  -0.097506  19.890657  21.927824  7.825856
  16549.070  16549.050  0.500  -0.097694  19.870434  21.909651  7.824412
  16551.542  16551.540  0.500  -0.098016  19.884732  21.932475  7.836266
  16554.051  16554.050  0.500  -0.098159  19.874856  21.924718  7.836169
  16556.585  16556.570  0.500  -0.098368  19.867280  21.920940  7.837779
  16559.120  16559.120  0.500  -0.098453  19.852714  21.906736  7.837989
  16561.692  16561.690  0.500  -0.098566  19.835553  21.890259  7.835993
  16564.288  16564.270  0.500  -0.098802  19.826449  21.885379  7.836670
  16566.922  16566.880  0.500  -0.098961  19.818316  21.879885  7.839262
  16569.508  16569.500  0.500  -0.099156  19.800973  21.865003  7.836649
  16572.143  16572.150  0.500  -0.099599  19.791181  21.863866  7.840629
  16574.815  16574.810  0.500  -0.099657  19.778858  21.851514  7.838046
  16577.524  16577.490  0.500  -0.099681  19.768569  21.840685  7.837180
  16580.198  16580.190  0.500  -0.100146  19.749926  21.830229  7.836104
  16582.909  16582.910  0.500  -0.100276  19.734503  21.816009  7.833255
  16585.644  16585.650  0.500  -0.100307  19.729991  21.811715  7.834612
  16588.381  16588.400  0.500  -0.100484  19.713092  21.796883  7.830796
  16591.215  16591.180  0.500  -0.100843  19.690750  21.779987  7.826210
  16594.002  16593.970  0.500  -0.101059  19.682946  21.776062  7.826985
  16596.826  16596.790  0.500  -0.101298  19.671521  21.768621  7.827362
  16599.615  16599.620  0.500  -0.101501  19.660221  21.760548  7.826456
  16602.489  16602.470  0.500  -0.101748  19.644906  21.748961  7.825237
  16605.340  16605.350  0.500  -0.102037  19.629138  21.737797  7.824276
  16608.253  16608.240  0.500  -0.102356  19.617880  21.732246  7.825042
  16611.166  16611.150  0.500  -0.102577  19.603701  21.721341  7.824279
  16614.081  16614.070  0.500  -0.102819  19.586382  21.707396  7.824636
  16617.008  16617.020  0.500  -0.102996  19.559126  21.681026  7.819662
  16619.997  16619.990  0.500  -0.103345  19.558422  21.687814  7.825846
  16623.012  16622.970  0.500  -0.103522  19.545629  21.677464  7.824896
  16626.016  16625.980  0.500  -0.103661  19.532376  21.665792  7.826314
  16629.020  16629.000  0.500  -0.103923  19.512372  21.649265  7.825988
  16632.050  16632.050  0.500  -0.104341  19.500514  21.645162  7.826228
  16635.118  16635.110  0.500  -0.104440  19.486068  21.631276  7.826566
  16638.210  16638.190  0.500  -0.104815  19.470661  21.622266  7.824810
  16641.304  16641.290  0.500  -0.105016  19.454134  21.608260  7.823716
  16644.448  16644.410  0.500  -0.105301  19.442941  21.601989  7.823398
  16647.569  16647.550  0.500  -0.105697  19.423266  21.588670  7.822026
  16650.715  16650.700  0.500  -0.105740  19.409132  21.573882  7.821317
  16653.911  16653.880  0.500  -0.106047  19.391535  21.560944  7.821233
  16657.096  16657.070  0.500  -0.106352  19.379820  21.554503  7.821260
  16660.331  16660.290  0.500  -0.106667  19.361160  21.540520  7.821939
  16663.542  16663.520  0.500  -0.107020  19.344982  21.530116  7.821056
  16666.792  16666.770  0.500  -0.107158  19.328985  21.515293  7.820451
  16670.079  16670.050  0.500  -0.107356  19.312967  21.501714  7.818286
  16673.380  16673.340  0.500  -0.107714  19.293918  21.488206  7.817634
  16676.682  16676.650  0.500  -0.107927  19.278008  21.475046  7.818991
  16679.986  16679.970  0.500  -0.108078  19.259873  21.458081  7.817195
  16683.340  16683.320  0.500  -0.108609  19.240029  21.447364  7.815270
  16686.743  16686.690  0.500  -0.108619  19.221432  21.426852  7.815269
  16690.124  16690.070  0.500  -0.109000  19.201186  21.412440  7.811425
  16693.518  16693.480  0.500  -0.109263  19.176528  21.390565  7.807320
  16696.914  16696.900  0.500  -0.109530  19.153266  21.370330  7.803597
  16700.372  16700.350  0.500  -0.109708  19.125386  21.343020  7.796336
  16703.844  16703.810  0.500  -0.110153  19.090009  21.313025  7.788963
  16707.342  16707.290  0.500  -0.110339  19.034088  21.254547  7.771395
  16710.842  16710.790  0.500  -0.110611  18.917667  21.130275  7.731483
  16714.318  16714.310  0.500  -0.110773  18.366888  20.518409  7.509879
  16717.857  16717.850  0.500  -0.111355  16.153827  18.056611  6.612054
  16721.434  16721.400  0.500  -0.111553  18.966476  21.204775  7.768937
  16725.013  16724.980  0.500  -0.111840  19.139394  21.404239  7.844844
  16728.606  16728.580  0.500  -0.111985  19.118970  21.384490  7.843898
  16732.200  16732.190  0.500  -0.112376  19.088821  21.359116  7.838128
  16735.845  16735.820  0.500  -0.112634  19.065539  21.338567  7.836561
  16739.503  16739.480  0.500  -0.113009  19.042885  21.321213  7.832879
  16743.188  16743.150  0.500  -0.113217  19.019649  21.299629  7.829721
  16746.875  16746.840  0.500  -0.113552  18.998230  21.282776  7.828286
  16750.575  16750.550  0.500  -0.113949  18.975872  21.266169  7.827734
  16754.290  16754.280  0.500  -0.114222  18.956655  21.250422  7.823441
  16758.043  16758.020  0.500  -0.114629  18.934570  21.234312  7.824259
  16761.834  16761.790  0.500  -0.114788  18.915062  21.215815  7.822204
  16765.603  16765.580  0.500  -0.115152  18.892925  21.198702  7.819982
  16769.398  16769.380  0.500  -0.115425  18.871855  21.180842  7.816564
  16773.244  16773.210  0.500  -0.115817  18.854497  21.169639  7.817226
  16777.092  16777.050  0.500  -0.116165  18.833256  21.153161  7.815774
  16780.979  16780.910  0.500  -0.116352  18.813234  21.134615  7.813437
  16784.793  16784.790  0.500  -0.116464  18.794881  21.116359  7.812543
  16788.696  16788.690  0.500  -0.116932  18.774143  21.102947  7.809810
  16792.662  16792.610  0.500  -0.117271  18.747888  21.080580  7.807255
  16796.606  16796.550  0.500  -0.117615  18.720837  21.057407  7.803498
  16800.539  16800.510  0.500  -0.118019  18.692082  21.033550  7.798171
  16804.498  16804.480  0.500  -0.118139  18.501077  20.821127  7.726069
  16808.497  16808.480  0.500  -0.118563  18.620022  20.963864  7.782090
  16812.547  16812.490  0.500  -0.118901  18.630190  20.982402  7.793920
  16816.586  16816.530  0.500  -0.119357  18.596448  20.953963  7.787381
  16820.603  16820.580  0.500  -0.119501  18.558559  20.914276  7.776658
  16824.659  16824.650  0.500  -0.119894  18.502062  20.858801  7.762725
  16828.767  16828.740  0.500  -0.120161  18.400342  20.749675  7.727128
  16832.889  16832.850  0.500  -0.120564  18.014896  20.323204  7.571205
  16837.037  16836.980  0.500  -0.120797  15.606776  17.610621  6.564513
  16841.139  16841.130  0.500  -0.121261  18.489593  20.873260  7.786160
  16845.329  16845.290  0.500  -0.121447  18.624498  21.029468  7.848145
  16849.496  16849.480  0.500  -0.121809  18.582756  20.989941  7.838966
  16853.728  16853.680  0.500  -0.122223  18.537887  20.947916  7.826666
  16857.937  16857.910  0.500  -0.122498  18.511237  20.923568  7.821996
  16862.161  16862.150  0.500  -0.122798  18.459791  20.871682  7.808280
  16866.436  16866.410  0.500  -0.123106  18.240128  20.629657  7.722536
  16870.752  16870.690  0.500  -0.123624  18.437726  20.863944  7.815355
  16875.069  16874.990  0.500  -0.123799  18.382173  20.804736  7.797346
  16879.351  16879.310  0.500  -0.124251  18.396226  20.830054  7.811482
  16883.686  16883.650  0.500  -0.124608  18.366517  20.803843  7.806179
  16888.047  16888.010  0.500  -0.124658  18.343225  20.778485  7.802900
  16892.436  16892.390  0.500  -0.125160  18.320121  20.762746  7.802764
  16896.827  16896.780  0.500  -0.125536  18.294151  20.741103  7.798436
  16901.208  16901.200  0.500  -0.125908  18.267327  20.718399  7.793865
  16905.679  16905.630  0.500  -0.126201  18.247502  20.701983  7.793330
  16910.115  16910.080  0.500  -0.126548  18.219088  20.676922  7.790402
  16914.616  16914.550  0.500  -0.127011  18.168072  20.628568  7.775828
  16919.081  16919.040  0.500  -0.127156  18.147561  20.608261  7.772783
  16923.600  16923.550  0.500  -0.127528  17.918924  20.356189  7.683533
  16928.158  16928.080  0.500  -0.127919  18.124733  20.598042  7.780224
  16932.681  16932.630  0.500  -0.128241  18.084588  20.559052  7.769309
  16937.244  16937.200  0.500  -0.128555  18.037063  20.511453  7.754759
  16941.860  16941.780  0.500  -0.129166  17.953436  20.428834  7.730163
  16946.441  16946.390  0.500  -0.129203  17.723086  20.167468  7.638471
  16951.100  16951.010  0.500  -0.129555  15.542196  17.692015  6.703191
  16955.723  16955.660  0.500  -0.130120  17.873215  20.356959  7.718899
  16960.425  16960.320  0.500  -0.130388  18.110467  20.632717  7.828631
  16965.079  16965.000  0.500  -0.130806  18.067275  20.592115  7.818762
  16969.799  16969.700  0.500  -0.131082  18.032259  20.557887  7.811981
  16974.521  16974.420  0.500  -0.131335  17.999032  20.525193  7.804355
  16979.360  16979.160  0.500  -0.131908  17.961798  20.494476  7.795565
  16984.024  16983.910  0.500  -0.132139  17.736297  20.241851  7.706089
  16988.868  16988.690  0.500  -0.132537  17.918990  20.458499  7.793628
  16993.550  16993.490  0.500  -0.132816  17.903085  20.446035  7.794526
  16998.375  16998.300  0.500  -0.133198  17.873160  20.419665  7.789712
  17003.189  17003.130  0.500  -0.133801  17.846515  20.401513  7.787245
  17008.082  17007.990  0.500  -0.134136  17.822779  20.381201  7.783258
  17012.928  17012.860  0.500  -0.134419  17.798955  20.359726  7.781183
  17017.826  17017.750  0.500  -0.134784  17.771348  20.335571  7.778923
  17022.665  17022.660  0.500  -0.135022  17.744276  20.309433  7.772285
  17027.633  17027.590  0.500  -0.135721  17.718841  20.294491  7.772401
